<?xml version="1.0" encoding="UTF-8"?><!-- Substance Reference Standard -->
<Bundle xmlns="http://hl7.org/fhir">
   <id value="bundle-drug-reference-standards-pq-ex2-sub"/>
   <meta>
      <profile value="http://hl7.org/fhir/uv/pharm-quality/StructureDefinition/Bundle-drug-reference-standards-pq"/>
   </meta>
   <type value="collection"/>
   <entry>
      <fullUrl value="urn:uuid:2038e4c7-22b8-4c56-2d28-6c077648763f"/>
      <resource>
         <PlanDefinition>
            <id value="referenceProtocol"/>
            <meta>
               <profile value="http://hl7.org/fhir/uv/pharm-quality/StructureDefinition/PlanDefinition-drug-pq"/>
            </meta>
            <url value="http://example-server.com/fhir/PlanDefinition/2038e4c7-22b8-4c56-2d28-6c077648763f"/>
            <title value="S.2.S.5 Reference Standard Analysis"/>
            <type>
               <coding>
                  <system value="http://terminology.hl7.org/CodeSystem/pharmaceutical-plan-type"/>
                  <code value="1244578"/>
                  <display value="Reference Standard Analysis"/>
               </coding>
            </type>
            <status value="active"/>
            <subjectReference>
               <reference value="SubstanceDefinition/substance1"/>
            </subjectReference>
            <description value="Narrative description of analysis"/>
            <action>
               
               
               <title value="Results for Analysis of Stelbatol Reference Standard"/>
               <code>
                  <text value="Overall set of actions"/>
               </code>
               <action>
                  <code>
                     <text value="Test"/>
                  </code>
                  <!--<definitionCanonical value="ObservationDefinition/TestDate"/>-->
                  <definitionCanonical value="http://example-server.com/fhir/ObservationDefinition/13033a89-927a-10e0-503e-5f901bdcb30f"/>
               </action>
               <action>
                  <code>
                     <text value="Test"/>
                  </code>
                  <!--<definitionCanonical value="ObservationDefinition/Appearance"/>-->
                  <definitionCanonical value="http://example-server.com/fhir/ObservationDefinition/13033a89-927a-10e0-503e-5f901bdca30f"/>
               </action>
               <action>
                  <code>
                     <text value="Test"/>
                  </code>
                  <!--<definitionCanonical value="ObservationDefinition/Identification"/>-->
                  <definitionCanonical value="http://example-server.com/fhir/ObservationDefinition/8395ae1d-5064-0ab7-a297-6b20285b2230"/>
               </action>
               <action>
                  <code>
                     <text value="Test"/>
                  </code>
                  <!--<definitionCanonical value="ObservationDefinition/IdentificationNMR"/>-->
                  <definitionCanonical value="http://example-server.com/fhir/ObservationDefinition/8395ae1d-5064-0ab7-a297-6b20285b2231"/>
               </action>
               <action>
                  <code>
                     <text value="Test"/>
                  </code>
                  <!--<definitionCanonical value="ObservationDefinition/Impurities"/>-->
                  <definitionCanonical value="http://example-server.com/fhir/ObservationDefinition/d04e0f2a-6ee7-6c2e-1db8-7df394c927b8"/>
               </action>
               <action>
                  <code>
                     <text value="Test"/>
                  </code>
                  <!--<definitionCanonical value="ObservationDefinition/Water"/>-->
                  <definitionCanonical value="http://example-server.com/fhir/ObservationDefinition/17b322fe-53ea-6c1f-521b-3b148ac05eb4"/>
               </action>
               <action>
                  <code>
                     <text value="Test"/>
                  </code>
                  <!--<definitionCanonical value="ObservationDefinition/Solvents"/>-->
                  <definitionCanonical value="http://example-server.com/fhir/ObservationDefinition/2daba8ca-211f-4f4b-4028-16c30fe22ee8"/>
               </action>
               <action>
                  <code>
                     <text value="Test"/>
                  </code>
                  <!--<definitionCanonical value="ObservationDefinition/Elemental"/>-->
                  <definitionCanonical value="http://example-server.com/fhir/ObservationDefinition/0634020c-8729-99fc-7637-89799d7c445b"/>
               </action>
               <action>
                  <code>
                     <text value="Test"/>
                  </code>
                  <!--<definitionCanonical value="ObservationDefinition/AssignedPurity"/>-->
                  <definitionCanonical value="http://example-server.com/fhir/ObservationDefinition/0634020c-8729-99fc-7637-897a9d7c445b"/>
               </action>
            </action>
         </PlanDefinition>
      </resource>
   </entry>
   <entry>
      <fullUrl value="urn:uuid:13033a89-927a-10e0-503e-5f901bdca31f"/>
      <resource>
         <ObservationDefinition>
            <id value="TestDate"/>
            <url value="http://example-server.com/fhir/ObservationDefinition/13033a89-927a-10e0-503e-5f901bdcb30f"/>
            <title value="Test Date"/>
            <status value="active"/>
            <code>
               <coding>
                  <system value="http://hl7.org/fhir/uv/pharm-quality/CodeSystem/cs-local-codes-drug-pq-example"/>
                  <code value="Test Date"/>
                  <display value="Test Date"/>
               </coding>
               <text value="Test Date"/>
            </code>
         </ObservationDefinition>
      </resource>
   </entry>
   <entry>
      <fullUrl value="urn:uuid:13033a89-927a-10e0-503e-5f901bdca30f"/>
      <resource>
         <ObservationDefinition>
            <id value="Appearance"/>
            <url value="http://example-server.com/fhir/ObservationDefinition/13033a89-927a-10e0-503e-5f901bdca30f"/>
            <title value="Appearance"/>
            <status value="active"/>
            <code>
               <coding>
                  <system value="http://hl7.org/fhir/uv/pharm-quality/CodeSystem/cs-local-codes-drug-pq-example"/>
                  <code value="Appearance"/>
                  <display value="Appearance"/>
               </coding>
               <text value="Appearance"/>
            </code>
            <method>
               <text value="Visual evaluation"/>
            </method>
            <qualifiedValue>
               <extension url="http://hl7.org/fhir/uv/pharm-quality/StructureDefinition/Extension-qualified-value-text-pq">
                  <valueString value="White powder"/>
               </extension>
            </qualifiedValue>
         </ObservationDefinition>
      </resource>
   </entry>
   <entry>
      <fullUrl value="urn:uuid:8395ae1d-5064-0ab7-a297-6b20285b2230"/>
      <resource>
         <ObservationDefinition>
            <id value="Identification"/>
            <url value="http://example-server.com/fhir/ObservationDefinition/8395ae1d-5064-0ab7-a297-6b20285b2230"/>
            <title value="Identification"/>
            <status value="active"/>
            <code>
               <coding>
                  <system value="http://hl7.org/fhir/uv/pharm-quality/CodeSystem/cs-local-codes-drug-pq-example"/>
                  <code value="Identification (FT-IR)"/>
                  <display value="Identification (FT-IR)"/>
               </coding>
               <text value="Identification (FT-IR)"/>
            </code>
            <method>
               <text value="FT-IR"/>
            </method>
            <qualifiedValue>
               <extension url="http://hl7.org/fhir/uv/pharm-quality/StructureDefinition/Extension-qualified-value-text-pq">
                  <valueString value="Consistent with structure at release; Conforms to standard at requalification"/>
               </extension>
            </qualifiedValue>
         </ObservationDefinition>
      </resource>
   </entry>
   <entry>
      <fullUrl value="urn:uuid:8395ae1d-5064-0ab7-a297-6b20285b2231"/>
      <resource>
         <ObservationDefinition>
            <id value="IdentificationNMR"/>
            <url value="http://example-server.com/fhir/ObservationDefinition/8395ae1d-5064-0ab7-a297-6b20285b2231"/>
            <title value="Identification (NMR)"/>
            <status value="active"/>
            <code>
               <coding>
                  <system value="http://hl7.org/fhir/uv/pharm-quality/CodeSystem/cs-local-codes-drug-pq-example"/>
                  <code value="Identification (NMR)"/>
                  <display value="Identification (NMR)"/>
               </coding>
               <text value="Identification (NMR)"/>
            </code>
            <method>
               <text value="NMR spectrometry"/>
            </method>
            <qualifiedValue>
               <extension url="http://hl7.org/fhir/uv/pharm-quality/StructureDefinition/Extension-qualified-value-text-pq">
                  <valueString value="Consistent with structure"/>
               </extension>
            </qualifiedValue>
         </ObservationDefinition>
      </resource>
   </entry>
   <entry>
      <fullUrl value="urn:uuid:d04e0f2a-6ee7-6c2e-1db8-7df394c927b8"/>
      <resource>
         <ObservationDefinition>
            <id value="Impurities"/>
            <meta>
               <profile value="http://hl7.org/fhir/uv/pharm-quality/StructureDefinition/ObservationDefinition-test-method-drug-pq"/>
            </meta>
            <url value="http://example-server.com/fhir/ObservationDefinition/d04e0f2a-6ee7-6c2e-1db8-7df394c927b8"/>
            <title value="Organic Impurities (w/w%)"/>
            <status value="active"/>
            <code>
               <coding>
                  <system value="http://hl7.org/fhir/uv/pharm-quality/CodeSystem/cs-local-codes-drug-pq-example"/>
                  <code value="DGP-s"/>
                  <display value="Drug Substance Related Organic impurities"/>
               </coding>
            </code>
            <method>
               <text value="HPLC"/>
            </method>
            <qualifiedValue>
               <appliesTo> <!-- could be a code -->
                  <text value="Impurity 1"/>
               </appliesTo>
               <range>
                  <high>
                     <value value="0.5"/>
                     <unit value="% w/w"/>
                  </high>
               </range>
            </qualifiedValue>
            <qualifiedValue>
               <appliesTo>
                  <text value="Impurity 2"/>
               </appliesTo>
               <range>
                  <high>
                     <value value="0.5"/>
                     <unit value="% w/w"/>
                  </high>
               </range>
            </qualifiedValue>
            <qualifiedValue>
               <appliesTo>
                  <text value="Impurity 3"/>
               </appliesTo>
               <range>
                  <high>
                     <value value="0.5"/>
                     <unit value="% w/w"/>
                  </high>
               </range>
            </qualifiedValue>
            <qualifiedValue>
               <appliesTo>
                  <text value="Total impurities"/>
               </appliesTo>
               <range>
                  <high>
                     <value value="2.0"/>
                     <unit value="% w/w"/>
                  </high>
               </range>
            </qualifiedValue>
            <component> <!-- are expected to have a component that says what impurity this one is -->
               <code>
                  <coding>
                     <system value="http://hl7.org/fhir/uv/pharm-quality/CodeSystem/cs-local-codes-drug-pq-example"/>
                     <code value="IMP"/>
                     <display value="Impurity"/>
                  </coding>
               </code>
            </component>
         </ObservationDefinition>
      </resource>
   </entry>
   <entry>
      <fullUrl value="urn:uuid:2daba8ca-211f-4f4b-4028-16c30fe22ee8"/>
      <resource>
         <ObservationDefinition>
            <id value="Solvents"/>
            <url value="http://example-server.com/fhir/ObservationDefinition/2daba8ca-211f-4f4b-4028-16c30fe22ee8"/>
            <title value="Residual solvents"/>
            <status value="active"/>
            <code>
               <coding>
                  <system value="http://hl7.org/fhir/uv/pharm-quality/CodeSystem/cs-local-codes-drug-pq-example"/>
                  <code value="SOL"/>
                  <display value="Residual solvents"/>
               </coding>
            </code>
            <method>
               <text value="GC"/>
            </method>
            <qualifiedValue>
               <extension url="http://hl7.org/fhir/uv/pharm-quality/StructureDefinition/Extension-qualified-value-text-pq">
                  <valueString value="Report"/>
               </extension>
               <appliesTo> <!-- could be a code -->
                  <text value="Solvent 1"/>
               </appliesTo>
            </qualifiedValue>
            <qualifiedValue>
               <extension url="http://hl7.org/fhir/uv/pharm-quality/StructureDefinition/Extension-qualified-value-text-pq">
                  <valueString value="Report"/>
               </extension>
               <appliesTo>
                  <text value="Solvent 2"/>
               </appliesTo>
            </qualifiedValue>
            <component> <!-- are expected to have a component that says what solvent this one is -->
               <code>
                  <coding>
                     <system value="http://hl7.org/fhir/uv/pharm-quality/CodeSystem/cs-local-codes-drug-pq-example"/>
                     <code value="SOLV"/>
                     <display value="Solvent"/>
                  </coding>
               </code>
            </component>
         </ObservationDefinition>
      </resource>
   </entry>
   <entry>
      <fullUrl value="urn:uuid:17b322fe-53ea-6c1f-521b-3b148ac05eb4"/>
      <resource>
         <ObservationDefinition>
            <id value="Water"/>
            <url value="http://example-server.com/fhir/ObservationDefinition/17b322fe-53ea-6c1f-521b-3b148ac05eb4"/>
            <title value="Water Content"/>
            <status value="active"/>
            <code>
               <coding>
                  <system value="http://hl7.org/fhir/uv/pharm-quality/CodeSystem/cs-local-codes-drug-pq-example"/>
                  <code value="WaterContent"/>
                  <display value="Water Content"/>
               </coding>
               <text value="Water Content"/>
            </code>
            <method>
               <text value="USP Karl Fischer titration"/>
            </method>
            <qualifiedValue>
               <extension url="http://hl7.org/fhir/uv/pharm-quality/StructureDefinition/Extension-qualified-value-text-pq">
                  <valueString value="Report"/>
               </extension>
            </qualifiedValue>
         </ObservationDefinition>
      </resource>
   </entry>
   <entry>
      <fullUrl value="urn:uuid:0634020c-8729-99fc-7637-89799d7c445b"/>
      <resource>
         <ObservationDefinition>
            <id value="Elemental"/>
            <url value="http://example-server.com/fhir/ObservationDefinition/0634020c-8729-99fc-7637-89799d7c445b"/>
            <title value="Elemental impurities"/>
            <status value="active"/>
            <code>
               <coding>
                  <system value="http://hl7.org/fhir/uv/pharm-quality/CodeSystem/cs-local-codes-drug-pq-example"/>
                  <code value="ELE"/>
                  <display value="Elemental impurities"/>
               </coding>
            </code>
            <method>
               <text value="ICP-MS"/>
            </method>
            <qualifiedValue>
               <extension url="http://hl7.org/fhir/uv/pharm-quality/StructureDefinition/Extension-qualified-value-text-pq">
                  <valueString value="Report"/>
               </extension>
            </qualifiedValue>
         </ObservationDefinition>
      </resource>
   </entry>
   <entry>
      <fullUrl value="urn:uuid:0634020c-8729-99fc-7637-897a9d7c445b"/>
      <resource>
         <ObservationDefinition>
            <id value="AssignedPurity"/>
            <url value="http://example-server.com/fhir/ObservationDefinition/0634020c-8729-99fc-7637-897a9d7c445b"/>
            <title value="Assigned Purity (w/w%)"/>
            <status value="active"/>
            <code>
               <coding>
                  <system value="http://hl7.org/fhir/uv/pharm-quality/CodeSystem/cs-local-codes-drug-pq-example"/>
                  <code value="AssignedPurity"/>
                  <display value="Assigned Purity"/>
               </coding>
            </code>
            <method>
               <text value="Calculation"/>
            </method>
            <qualifiedValue>
               <extension url="http://hl7.org/fhir/uv/pharm-quality/StructureDefinition/Extension-qualified-value-text-pq">
                  <valueString value="Report"/>
               </extension>
               <appliesTo>
                  <text value="Assigned Purity"/>
               </appliesTo>
            </qualifiedValue>
            <component> <!-- are expected to have a component that says what impurity this one is -->
               <code>
                  <coding>
                     <system value="http://hl7.org/fhir/uv/pharm-quality/CodeSystem/cs-local-codes-drug-pq-example"/>
                     <code value="IMP"/>
                     <display value="Impurity"/>
                  </coding>
               </code>
            </component>
         </ObservationDefinition>
      </resource>
   </entry>
   <entry>
      <fullUrl value="urn:uuid:87ef899b-14dd-26b7-7416-7ec1d01b62a1"/>
      <resource>
         <Substance>
            <id value="substance-dxpq-ex1"/>
            <!-- was actual-batch-substance -->
            <extension url="http://hl7.org/fhir/StructureDefinition/medication-manufacturingBatch">
               <extension url="manufacturingDate">
                  <valueDateTime value="2020-01"/>
               </extension>
               <extension url="batchQuantity">
                  <valueQuantity>
                     <value value="120"/>
                     <unit value="kg"/>
                  </valueQuantity>
               </extension>
               <extension url="batchUtilization">
                  <valueCodeableConcept>
                     <coding>
                        <system value="http://ncicb.nci.nih.gov/xml/owl/EVS/Thesaurus.owl"/>
                        <code value="C133990"/>
                        <display value="Commercial"/>
                        <!-- could also be C185328 Stability Study? -->
                     </coding>
                     <text value="Production"/>
                  </valueCodeableConcept>
               </extension>
               <extension url="assignedManufacturer">
                  <valueReference>
                     <reference value="Organization/substance-manufacturer"/>
                  </valueReference>
               </extension>
            </extension>
            <!-- local extensions -->
            <extension url="http://hl7.org/fhir/uv/pharm-quality/StructureDefinition/Extension-batch-release-date-pq">
               <valueDateTime value="2019-09-08"/>
            </extension>
            <extension url="http://hl7.org/fhir/uv/pharm-quality/StructureDefinition/Extension-batch-retest-date-pq">
               <valueDateTime value="2022-09-08"/>
            </extension>
            <extension url="http://hl7.org/fhir/uv/pharm-quality/StructureDefinition/Extension-manufacturing-process-pq">
               <valueReference>
                  <reference value="PlanDefinition/plandefinition-dxpq-ex4-mnf-process"/>
               </valueReference>
            </extension>
            <extension url="http://hl7.org/fhir/uv/pharm-quality/StructureDefinition/Extension-actual-yield-pq">
               <valueQuantity>
                  <value value="4.8"/>
                  <unit value="kg"/>
               </valueQuantity>
            </extension>
            <identifier>
               <value value="CAT1"/>
            </identifier>
            <instance value="true"/>
            <code>
               <reference>
                  <reference value="SubstanceDefinition/substance1"/>
               </reference>
            </code>
         </Substance>
      </resource>
   </entry>
   <entry>
      <fullUrl value="urn:uuid:6412c5d4-1b7d-8405-85dc-75dbaa300ea4"/>
      <resource>
         <Substance>
            <id value="actual-batch-substance-2"/>
            <extension url="http://hl7.org/fhir/StructureDefinition/medication-manufacturingBatch">
               <extension url="manufacturingDate">
                  <valueDateTime value="2020-02"/>
               </extension>
               <extension url="batchQuantity">
                  <valueQuantity>
                     <value value="120"/>
                     <unit value="kg"/>
                  </valueQuantity>
               </extension>
               <extension url="batchUtilization">
                  <valueCodeableConcept>
                     <coding>
                        <system value="http://ncicb.nci.nih.gov/xml/owl/EVS/Thesaurus.owl"/>
                        <code value="C133990"/>
                        <display value="Commercial"/>
                     </coding>
                     <text value="Production"/>
                  </valueCodeableConcept>
               </extension>
               <extension url="assignedManufacturer">
                  <valueReference>
                     <reference value="Organization/substance-manufacturer"/>
                  </valueReference>
               </extension>
            </extension>
            <!-- local extensions -->
            <extension url="http://hl7.org/fhir/uv/pharm-quality/StructureDefinition/Extension-batch-release-date-pq">
               <valueDateTime value="2019-09-08"/>
            </extension>
            <extension url="http://hl7.org/fhir/uv/pharm-quality/StructureDefinition/Extension-batch-retest-date-pq">
               <valueDateTime value="2022-09-08"/>
            </extension>
            <extension url="http://hl7.org/fhir/uv/pharm-quality/StructureDefinition/Extension-actual-yield-pq">
               <valueQuantity>
                  <value value="4.8"/>
                  <unit value="kg"/>
               </valueQuantity>
            </extension>
            <identifier>
               <value value="CAT2"/>
            </identifier>
            <instance value="true"/>
            <code>
               <reference>
                  <reference value="SubstanceDefinition/substance1"/>
               </reference>
            </code>
         </Substance>
      </resource>
   </entry>
   <!-- Section 5 - Manufacturing Process -->
   <entry>
      <fullUrl value="urn:uuid:b30a1024-37db-a1bc-05e5-cc4596d92975"/>
      <resource>
         <PlanDefinition>
            <id value="plandefinition-dxpq-ex4-mnf-process"/>
            <url value="http://example-server.com/fhir/PlanDefinition/b30a1024-37db-a1bc-05e5-cc4596d92975"/>
            <title value="Process 1.1"/>
            <type>
               <coding>
                  <system value="http://terminology.hl7.org/CodeSystem/pharmaceutical-plan-type"/>
                  <code value="1244566"/>
                  <display value="Manufacturing Process"/>
               </coding>
            </type>
            <status value="active"/>
            <subjectReference>
               <reference value="SubstanceDefinition/substance1"/>
            </subjectReference>
         </PlanDefinition>
      </resource>
   </entry>
   <entry>
      <fullUrl value="urn:uuid:8dae93e0-048d-35a4-71ea-7c603184a130"/>
      <resource>
         <SubstanceDefinition>
            <id value="substance1"/>
            <manufacturer>
               <reference value="Organization/substance-manufacturer"/>
            </manufacturer>
            <name>
               <name value="Stelbatolol"/>
            </name>
         </SubstanceDefinition>
      </resource>
   </entry>
   <entry>
      <fullUrl value="urn:uuid:3d399cbc-244e-9b5f-838b-b7daa0489330"/>
      <resource>
         <Organization>
            <id value="substance-manufacturer"/>
            <identifier>
					<!-- FDA establishment identifier -->
               <system value="urn:oid:2.16.840.1.113883.4.82"/>
               <value value="3003040516"/>
            </identifier>
            <active value="true"/>
            <type>
               <coding>
                  <system value="http://terminology.hl7.org/CodeSystem/pharmaceutical-organization-type"/>
                  <code value="drug-substance-manufacture"/>
                  <display value="Drug Substance Manufacture"/>
               </coding>
            </type>
            <name value="AAA Molybdenum Products, Inc."/>
            <contact>
               <address>
                  <line value="7233 W 116th Pl"/>
                  <line value="Ste C"/>
                  <city value="Broomfield"/>
                  <state value="Colorado"/>
                  <postalCode value="80020"/>
                  <country value="USA"/>
               </address>
            </contact>
         </Organization>
      </resource>
   </entry>
   <entry>
      <fullUrl value="urn:uuid:378fbe5f-5926-3a5c-4c64-5428df877b08"/>
      <resource>
         <Organization>
                <!--testing lab-->
            <id value="378fbe5f-5926-3a5c-4c64-5428df877b08"/>
            <identifier>
               <system value="urn:oid:2.16.840.1.113883.4.82"/>
               <value value="3007270600"/>
            </identifier>
            <active value="true"/>
            <type>
               <coding>
                  <system value="http://terminology.hl7.org/CodeSystem/pharmaceutical-organization-type"/>
                  <code value="analytical-testing-release"/>
                  <display value="Analytical Testing - Release"/>
               </coding>
            </type>
            <name value="Testing Lab"/>
         </Organization>
      </resource>
   </entry>
   <!-- Diagnostic report doesn't carry much extra value but does collect all the observations -->
   <entry>
      <fullUrl value="urn:uuid:01a5777c-4b48-a0df-2963-02cd63339006"/>
      <resource>
         <DiagnosticReport>
            <id value="referenceStandardReport"/>
            <extension url="http://hl7.org/fhir/StructureDefinition/workflow-triggeredBy">
               <valueReference>
                  <reference value="PlanDefinition/referenceProtocol"/>
               </valueReference>
            </extension>
            <status value="final"/>
            <code>
               <coding>
                  <system value="http://terminology.hl7.org/CodeSystem/pharmaceutical-report-type"/>
                  <code value="Reference Standard Report"/>
                  <display value="Reference Standard Report"/>
               </coding>
            </code>
            <effectiveDateTime value="2020-12"/>
            <!-- start of stability test -->
            <result>
               <reference value="Observation/testDate1"/>
            </result>
            <result>
               <reference value="Observation/testDate2"/>
            </result>
            <result>
               <reference value="Observation/testDate3"/>
            </result>
            <result>
               <reference value="Observation/testDateSecond1"/>
            </result>
            <result>
               <reference value="Observation/Observation-test-result-pq-ex2"/>
            </result>
            <result>
               <reference value="Observation/observationDescription2"/>
            </result>
            <result>
               <reference value="Observation/observationDescription3"/>
            </result>
            <result>
               <reference value="Observation/observationDescriptionSecond1"/>
            </result>
            <result>
               <reference value="Observation/observationIdentification"/>
            </result>
            <result>
               <reference value="Observation/observationIdentification2"/>
            </result>
            <result>
               <reference value="Observation/observationIdentification3"/>
            </result>
            <result>
               <reference value="Observation/observationIdentificationSecond1"/>
            </result>
            <result>
               <reference value="Observation/observationIdentificationNMR1"/>
            </result>
            <result>
               <reference value="Observation/observationIdentificationNMR2"/>
            </result>
            <result>
               <reference value="Observation/observationIdentificationNMR3"/>
            </result>
            <result>
               <reference value="Observation/observationIdentificationNMRSecond1"/>
            </result>
            <result>
               <reference value="Observation/observationDegradation-imp1"/>
            </result>
            <result>
               <reference value="Observation/observationDegradation-imp1-2"/>
            </result>
            <result>
               <reference value="Observation/observationDegradation-imp1-3"/>
            </result>
            <result>
               <reference value="Observation/observationDegradation-imp1Second"/>
            </result>
            <result>
               <reference value="Observation/observationDegradation-imp2"/>
            </result>
            <result>
               <reference value="Observation/observationDegradation-imp2-2"/>
            </result>
            <result>
               <reference value="Observation/observationDegradation-imp2-3"/>
            </result>
            <result>
               <reference value="Observation/observationDegradation-imp2Second"/>
            </result>
            <result>
               <reference value="Observation/observationDegradation-imp3"/>
            </result>
            <result>
               <reference value="Observation/observationDegradation-imp3-2"/>
            </result>
            <result>
               <reference value="Observation/observationDegradation-imp3-3"/>
            </result>
            <result>
               <reference value="Observation/observationDegradation-imp3Second"/>
            </result>
            <result>
               <reference value="Observation/observationDegradation-imp-total"/>
            </result>
            <result>
               <reference value="Observation/observationDegradation-imp-total-2"/>
            </result>
            <result>
               <reference value="Observation/observationDegradation-imp-total-3"/>
            </result>
            <result>
               <reference value="Observation/observationDegradation-imp-totalSecond"/>
            </result>
            <result>
               <reference value="Observation/observationElemental"/>
            </result>
            <result>
               <reference value="Observation/observationElemental2"/>
            </result>
            <result>
               <reference value="Observation/observationElemental3"/>
            </result>
            <result>
               <reference value="Observation/observationElementalSecond"/>
            </result>
            <result>
               <reference value="Observation/observationSolvents-sol1"/>
            </result>
            <result>
               <reference value="Observation/observationSolvents-sol1-2"/>
            </result>
            <result>
               <reference value="Observation/observationSolvents-sol1-3"/>
            </result>
            <result>
               <reference value="Observation/observationSolvents-sol1Second"/>
            </result>
            <result>
               <reference value="Observation/observationSolvents-sol2"/>
            </result>
            <result>
               <reference value="Observation/observationSolvents-sol2-2"/>
            </result>
            <result>
               <reference value="Observation/observationSolvents-sol2-3"/>
            </result>
            <result>
               <reference value="Observation/observationSolvents-sol2Second"/>
            </result>
            <result>
               <reference value="Observation/observationWater"/>
            </result>
            <result>
               <reference value="Observation/observationWater2"/>
            </result>
            <result>
               <reference value="Observation/observationWater3"/>
            </result>
            <result>
               <reference value="Observation/observationWaterSecond"/>
            </result>
            <result>
               <reference value="Observation/observationAssignedPurity1"/>
            </result>
            <result>
               <reference value="Observation/observationAssignedPurity2"/>
            </result>
            <result>
               <reference value="Observation/observationAssignedPurity3"/>
            </result>
            <result>
               <reference value="Observation/observationAssignedPurity1second"/>
            </result>
            <conclusion value="The samples have been assessed and the conclusion is..."/>
         </DiagnosticReport>
      </resource>
   </entry>
   <entry>
      <fullUrl value="urn:uuid:82f553f9-8458-3cf4-8379-eea5417a9de2"/>
      <resource>
         <Observation>
            <id value="testDate1"/>
            <meta>
               <profile value="http://hl7.org/fhir/uv/pharm-quality/StructureDefinition/Observation-test-result-drug-pq"/>
            </meta>
            <instantiatesReference>
               <reference value="ObservationDefinition/TestDate"/>
            </instantiatesReference>
            <status value="final"/>
            <code>
               <coding>
                  <system value="http://hl7.org/fhir/uv/pharm-quality/CodeSystem/cs-local-codes-drug-pq-example"/>
                  <code value="Test Date"/>
                  <display value="Test Date"/>
               </coding>
               <text value="est Date"/>
            </code>
            <subject>
               <reference value="Substance/substance-dxpq-ex1"/>
            </subject>
            <effectiveDateTime value="2023-01-01T12:00:00Z"/>
            <performer>
               <reference value="Organization/378fbe5f-5926-3a5c-4c64-5428df877b08"/>
            </performer>
            <valueDateTime value="2021-07"/>
         </Observation>
      </resource>
   </entry>
   <entry>
      <fullUrl value="urn:uuid:82f552f9-8458-3cff-8379-eea5417a9de2"/>
      <resource>
         <Observation>
            <id value="testDate2"/>
            <!-- was observationDescription -->
            <meta>
               <profile value="http://hl7.org/fhir/uv/pharm-quality/StructureDefinition/Observation-test-result-drug-pq"/>
            </meta>
            <instantiatesReference>
               <reference value="ObservationDefinition/TestDate"/>
            </instantiatesReference>
            <status value="final"/>
            <code>
               <coding>
                  <system value="http://hl7.org/fhir/uv/pharm-quality/CodeSystem/cs-local-codes-drug-pq-example"/>
                  <code value="Test Date"/>
                  <display value="Test Date"/>
               </coding>
               <text value="Test Date"/>
            </code>
            <subject>
               <reference value="Substance/substance-dxpq-ex1"/>
            </subject>
            <effectiveDateTime value="2023-01-01T12:00:00Z"/>
            <performer>
               <reference value="Organization/378fbe5f-5926-3a5c-4c64-5428df877b08"/>
            </performer>
            <valueDateTime value="2022-07"/>
         </Observation>
      </resource>
   </entry>
   <entry>
      <fullUrl value="urn:uuid:82f552f7-8458-3cff-8379-eea5417a9de2"/>
      <resource>
         <Observation>
            <id value="testDate3"/>
            <!-- was observationDescription -->
            <meta>
               <profile value="http://hl7.org/fhir/uv/pharm-quality/StructureDefinition/Observation-test-result-drug-pq"/>
            </meta>
            <instantiatesReference>
               <reference value="ObservationDefinition/TestDate"/>
            </instantiatesReference>
            <status value="final"/>
            <code>
               <coding>
                  <system value="http://hl7.org/fhir/uv/pharm-quality/CodeSystem/cs-local-codes-drug-pq-example"/>
                  <code value="Test Date"/>
                  <display value="Test Date"/>
               </coding>
               <text value="Test Date"/>
            </code>
            <subject>
               <reference value="Substance/substance-dxpq-ex1"/>
            </subject>
            <effectiveDateTime value="2023-01-01T12:00:00Z"/>
            <performer>
               <reference value="Organization/378fbe5f-5926-3a5c-4c64-5428df877b08"/>
            </performer>
            <valueDateTime value="2023-07"/>
         </Observation>
      </resource>
   </entry>
   <entry>
      <fullUrl value="urn:uuid:83f552f7-8458-3cff-8379-eea5417a9de2"/>
      <resource>
         <Observation>
            <id value="testDateSecond1"/>
            <meta>
               <profile value="http://hl7.org/fhir/uv/pharm-quality/StructureDefinition/Observation-test-result-drug-pq"/>
            </meta>
            <instantiatesReference>
               <reference value="ObservationDefinition/TestDate"/>
            </instantiatesReference>
            <status value="final"/>
            <code>
               <coding>
                  <system value="http://hl7.org/fhir/uv/pharm-quality/CodeSystem/cs-local-codes-drug-pq-example"/>
                  <code value="Test Date"/>
                  <display value="Test Date"/>
               </coding>
               <text value="Test Date"/>
            </code>
            <subject>
               <reference value="Substance/actual-batch-substance-2"/>
            </subject>
            <effectiveDateTime value="2023-01-01T12:00:00Z"/>
            <performer>
               <reference value="Organization/378fbe5f-5926-3a5c-4c64-5428df877b08"/>
            </performer>
            <valueDateTime value="2024-07"/>
         </Observation>
      </resource>
   </entry>
   <entry>
      <fullUrl value="urn:uuid:82f552f9-8458-3cf4-8379-eea5417a9de2"/>
      <resource>
         <Observation>
            <id value="Observation-test-result-pq-ex2"/>
            <meta>
               <profile value="http://hl7.org/fhir/uv/pharm-quality/StructureDefinition/Observation-test-result-drug-pq"/>
            </meta>
            <instantiatesReference>
               <reference value="ObservationDefinition/Appearance"/>
            </instantiatesReference>
            <status value="final"/>
            <code>
               <coding>
                  <system value="http://hl7.org/fhir/uv/pharm-quality/CodeSystem/cs-local-codes-drug-pq-example"/>
                  <code value="Appearance"/>
                  <display value="Appearance"/>
               </coding>
               <text value="Appearance"/>
            </code>
            <subject>
               <reference value="Substance/substance-dxpq-ex1"/>
            </subject>
            <effectiveDateTime value="2023-01-01T12:00:00Z"/>
            <performer>
               <reference value="Organization/378fbe5f-5926-3a5c-4c64-5428df877b08"/>
            </performer>
            <valueString value="White Powder"/>
         </Observation>
      </resource>
   </entry>
   <entry>
      <fullUrl value="urn:uuid:50bf6f69-a3f5-678b-469b-c5df5cca4c86"/>
      <resource>
         <Observation>
            <id value="observationDescription2"/>
            <instantiatesReference>
               <reference value="ObservationDefinition/Appearance"/>
            </instantiatesReference>
            <status value="final"/>
            <code>
               <coding>
                  <system value="http://hl7.org/fhir/uv/pharm-quality/CodeSystem/cs-local-codes-drug-pq-example"/>
                  <code value="DESC"/>
                  <display value="Description"/>
               </coding>
               <text value="Description"/>
            </code>
            <subject>
               <reference value="Substance/substance-dxpq-ex1"/>
            </subject>
            <effectiveDateTime value="2023-01-01T12:00:00Z"/>
            <performer>
               <reference value="Organization/378fbe5f-5926-3a5c-4c64-5428df877b08"/>
            </performer>
            <valueString value="White Powder"/>
         </Observation>
      </resource>
   </entry>
   <entry>
      <fullUrl value="urn:uuid:145fd3b7-3678-867f-4298-a6c781b86de3"/>
      <resource>
         <Observation>
            <id value="observationDescription3"/>
            <instantiatesReference>
               <reference value="ObservationDefinition/Appearance"/>
            </instantiatesReference>
            <status value="final"/>
            <code>
               <coding>
                  <system value="http://hl7.org/fhir/uv/pharm-quality/CodeSystem/cs-local-codes-drug-pq-example"/>
                  <code value="DESC"/>
                  <display value="Description"/>
               </coding>
               <text value="Description"/>
            </code>
            <subject>
               <reference value="Substance/substance-dxpq-ex1"/>
            </subject>
            <effectiveDateTime value="2023-01-01T12:00:00Z"/>
            <performer>
               <reference value="Organization/378fbe5f-5926-3a5c-4c64-5428df877b08"/>
            </performer>
            <valueString value="White Powder"/>
         </Observation>
      </resource>
   </entry>
   <entry>
      <fullUrl value="urn:uuid:81f552f9-8458-3cf4-8379-eea5417a9de2"/>
      <resource>
         <Observation>
            <id value="observationDescriptionSecond1"/>
            <meta>
               <profile value="http://hl7.org/fhir/uv/pharm-quality/StructureDefinition/Observation-test-result-drug-pq"/>
            </meta>
            <instantiatesReference>
               <reference value="ObservationDefinition/Appearance"/>
            </instantiatesReference>
            <status value="final"/>
            <code>
               <coding>
                  <system value="http://hl7.org/fhir/uv/pharm-quality/CodeSystem/cs-local-codes-drug-pq-example"/>
                  <code value="Appearance"/>
                  <display value="Appearance"/>
               </coding>
               <text value="Appearance"/>
            </code>
            <subject>
               <reference value="Substance/actual-batch-substance-2"/>
            </subject>
            <effectiveDateTime value="2023-01-01T12:00:00Z"/>
            <performer>
               <reference value="Organization/378fbe5f-5926-3a5c-4c64-5428df877b08"/>
            </performer>
            <valueString value="Off-white Powder"/>
         </Observation>
      </resource>
   </entry>
   <entry>
      <fullUrl value="urn:uuid:55c89944-60d1-4eea-a2c3-6c53e3622bc5"/>
      <resource>
         <Observation>
            <id value="observationIdentification"/>
            <instantiatesReference>
               <reference value="ObservationDefinition/Identification"/>
            </instantiatesReference>
            <status value="final"/>
            <code>
               <coding>
                  <system value="http://hl7.org/fhir/uv/pharm-quality/CodeSystem/cs-local-codes-drug-pq-example"/>
                  <code value="IDT"/>
                  <display value="Identification"/>
               </coding>
               <text value="Identification"/>
            </code>
            <subject>
               <reference value="Substance/substance-dxpq-ex1"/>
            </subject>
            <effectiveDateTime value="2023-01-01T12:00:00Z"/>
            <performer>
               <reference value="Organization/378fbe5f-5926-3a5c-4c64-5428df877b08"/>
            </performer>
            <valueString value="Consistent with structure"/>
         </Observation>
      </resource>
   </entry>
   <entry>
      <fullUrl value="urn:uuid:adb51ab6-00a9-1078-69e5-d32c025a857c"/>
      <resource>
         <Observation>
            <id value="observationIdentification2"/>
            <instantiatesReference>
               <reference value="ObservationDefinition/Identification"/>
            </instantiatesReference>
            <status value="final"/>
            <code>
               <coding>
                  <system value="http://hl7.org/fhir/uv/pharm-quality/CodeSystem/cs-local-codes-drug-pq-example"/>
                  <code value="IDT"/>
                  <display value="Identification"/>
               </coding>
               <text value="Identification"/>
            </code>
            <subject>
               <reference value="Substance/substance-dxpq-ex1"/>
            </subject>
            <effectiveDateTime value="2023-01-01T12:00:00Z"/>
            <performer>
               <reference value="Organization/378fbe5f-5926-3a5c-4c64-5428df877b08"/>
            </performer>
            <valueString value="Conforms to standard"/>
         </Observation>
      </resource>
   </entry>
   <entry>
      <fullUrl value="urn:uuid:916a0ae2-9c43-72f0-a22a-c5f8ce902125"/>
      <resource>
         <Observation>
            <id value="observationIdentification3"/>
            <instantiatesReference>
               <reference value="ObservationDefinition/Identification"/>
            </instantiatesReference>
            <status value="final"/>
            <code>
               <coding>
                  <system value="http://hl7.org/fhir/uv/pharm-quality/CodeSystem/cs-local-codes-drug-pq-example"/>
                  <code value="IDT"/>
                  <display value="Identification"/>
               </coding>
               <text value="Identification"/>
            </code>
            <subject>
               <reference value="Substance/substance-dxpq-ex1"/>
            </subject>
            <effectiveDateTime value="2023-01-01T12:00:00Z"/>
            <performer>
               <reference value="Organization/378fbe5f-5926-3a5c-4c64-5428df877b08"/>
            </performer>
            <valueCodeableConcept>
               <text value="Conforms to standard"/>
            </valueCodeableConcept>
         </Observation>
      </resource>
   </entry>
   <entry>
      <fullUrl value="urn:uuid:55d89944-60d1-4eea-a2c3-6c53e3622bc5"/>
      <resource>
         <Observation>
            <id value="observationIdentificationSecond1"/>
            <instantiatesReference>
               <reference value="ObservationDefinition/Identification"/>
            </instantiatesReference>
            <status value="final"/>
            <code>
               <coding>
                  <system value="http://hl7.org/fhir/uv/pharm-quality/CodeSystem/cs-local-codes-drug-pq-example"/>
                  <code value="IDT"/>
                  <display value="Identification"/>
               </coding>
               <text value="Identification"/>
            </code>
            <subject>
               <reference value="Substance/actual-batch-substance-2"/>
            </subject>
            <effectiveDateTime value="2023-01-01T12:00:00Z"/>
            <performer>
               <reference value="Organization/378fbe5f-5926-3a5c-4c64-5428df877b08"/>
            </performer>
            <valueString value="Conforms to standard"/>
         </Observation>
      </resource>
   </entry>
   <entry>
      <fullUrl value="urn:uuid:55c89954-60d1-4eea-a2c3-6c53e3622bc5"/>
      <resource>
         <Observation>
            <id value="observationIdentificationNMR1"/>
            <instantiatesReference>
               <reference value="ObservationDefinition/IdentificationNMR"/>
            </instantiatesReference>
            <status value="final"/>
            <code>
               <coding>
                  <system value="http://hl7.org/fhir/uv/pharm-quality/CodeSystem/cs-local-codes-drug-pq-example"/>
                  <code value="Identification (NMR)"/>
                  <display value="Identification (NMR)"/>
               </coding>
               <text value="Identification (NMR)"/>
            </code>
            <subject>
               <reference value="Substance/substance-dxpq-ex1"/>
            </subject>
            <effectiveDateTime value="2023-01-01T12:00:00Z"/>
            <performer>
               <reference value="Organization/378fbe5f-5926-3a5c-4c64-5428df877b08"/>
            </performer>
            <valueString value="Consistent with structure"/>
         </Observation>
      </resource>
   </entry>
   <entry>
      <fullUrl value="urn:uuid:55c89954-60d1-4eea-b2c3-6c53e3622bc5"/>
      <resource>
         <Observation>
            <id value="observationIdentificationNMR2"/>
            <instantiatesReference>
               <reference value="ObservationDefinition/IdentificationNMR"/>
            </instantiatesReference>
            <status value="final"/>
            <code>
               <coding>
                  <system value="http://hl7.org/fhir/uv/pharm-quality/CodeSystem/cs-local-codes-drug-pq-example"/>
                  <code value="Identification (NMR)"/>
                  <display value="Identification (NMR)"/>
               </coding>
               <text value="Identification (NMR)"/>
            </code>
            <subject>
               <reference value="Substance/substance-dxpq-ex1"/>
            </subject>
            <effectiveDateTime value="2023-01-01T12:00:00Z"/>
            <performer>
               <reference value="Organization/378fbe5f-5926-3a5c-4c64-5428df877b08"/>
            </performer>
            <dataAbsentReason>
               <coding>
                  <system value="http://terminology.hl7.org/CodeSystem/data-absent-reason"/>
                  <code value="not-performed"/>
                  <display value="Not Performed"/>
               </coding>
               <text value="Not tested"/>
            </dataAbsentReason>
         </Observation>
      </resource>
   </entry>
   <entry>
      <fullUrl value="urn:uuid:55c89955-60d1-4eea-b2c3-6c53e3622bc5"/>
      <resource>
         <Observation>
            <id value="observationIdentificationNMR3"/>
            <instantiatesReference>
               <reference value="ObservationDefinition/IdentificationNMR"/>
            </instantiatesReference>
            <status value="final"/>
            <code>
               <coding>
                  <system value="http://hl7.org/fhir/uv/pharm-quality/CodeSystem/cs-local-codes-drug-pq-example"/>
                  <code value="Identification (NMR)"/>
                  <display value="Identification (NMR)"/>
               </coding>
               <text value="Identification (NMR)"/>
            </code>
            <subject>
               <reference value="Substance/substance-dxpq-ex1"/>
            </subject>
            <effectiveDateTime value="2023-01-01T12:00:00Z"/>
            <performer>
               <reference value="Organization/378fbe5f-5926-3a5c-4c64-5428df877b08"/>
            </performer>
            <dataAbsentReason>
               <coding>
                  <system value="http://terminology.hl7.org/CodeSystem/data-absent-reason"/>
                  <code value="not-performed"/>
                  <display value="Not Performed"/>
               </coding>
               <text value="Not tested"/>
            </dataAbsentReason>
         </Observation>
      </resource>
   </entry>
   <entry>
      <fullUrl value="urn:uuid:55c89955-60d1-4eea-a2c3-6c53e3622bc5"/>
      <resource>
         <Observation>
            <id value="observationIdentificationNMRSecond1"/>
            <instantiatesReference>
               <reference value="ObservationDefinition/IdentificationNMR"/>
            </instantiatesReference>
            <status value="final"/>
            <code>
               <coding>
                  <system value="http://hl7.org/fhir/uv/pharm-quality/CodeSystem/cs-local-codes-drug-pq-example"/>
                  <code value="Identification (NMR)"/>
                  <display value="Identification (NMR)"/>
               </coding>
               <text value="Identification (NMR)"/>
            </code>
            <subject>
               <reference value="Substance/actual-batch-substance-2"/>
            </subject>
            <effectiveDateTime value="2023-01-01T12:00:00Z"/>
            <performer>
               <reference value="Organization/378fbe5f-5926-3a5c-4c64-5428df877b08"/>
            </performer>
            <valueString value="Consistent with structure"/>
         </Observation>
      </resource>
   </entry>
   <entry>
      <fullUrl value="urn:uuid:02d9e6be-833c-1c6d-a64a-baa3935c959d"/>
      <resource>
         <Observation>
            <id value="observationDegradation-imp1"/>
            <instantiatesReference>
               <reference value="ObservationDefinition/Impurities"/>
            </instantiatesReference>
            <status value="final"/>
            <code>
               <coding>
                  <system value="http://hl7.org/fhir/uv/pharm-quality/CodeSystem/cs-local-codes-drug-pq-example"/>
                  <code value="Impurities"/>
                  <display value="Impurities"/>
               </coding>
               <text value="Impurities"/>
            </code>
            <subject>
               <reference value="Substance/substance-dxpq-ex1"/>
            </subject>
            <effectiveDateTime value="2023-01-01T12:00:00Z"/>
            <performer>
               <reference value="Organization/378fbe5f-5926-3a5c-4c64-5428df877b08"/>
            </performer>
            <valueQuantity>
               <value value="0.5"/>
               <comparator value="&lt;"/>
               <unit value="% w/w"/>
               <system value="http://unitsofmeasure.org"/>
               <code value="%"/>
            </valueQuantity>
            <component>
               <code>
                  <coding>
                     <system value="http://hl7.org/fhir/uv/pharm-quality/CodeSystem/cs-local-codes-drug-pq-example"/>
                     <code value="IMP"/>
                     <display value="Impurity"/>
                  </coding>
               </code>
               <valueCodeableConcept>
                  <text value="Impurity 1"/>
               </valueCodeableConcept>
            </component>
         </Observation>
      </resource>
   </entry>
   <entry>
      <fullUrl value="urn:uuid:d3e572b7-14fd-744b-4123-58741d75571e"/>
      <resource>
         <Observation>
            <id value="observationDegradation-imp1-2"/>
            <instantiatesReference>
               <reference value="ObservationDefinition/Impurities"/>
            </instantiatesReference>
            <status value="final"/>
            <code>
               <coding>
                  <system value="http://hl7.org/fhir/uv/pharm-quality/CodeSystem/cs-local-codes-drug-pq-example"/>
                  <code value="Impurities"/>
                  <display value="Impurities"/>
               </coding>
               <text value="Impurities"/>
            </code>
            <subject>
               <reference value="Substance/substance-dxpq-ex1"/>
            </subject>
            <effectiveDateTime value="2023-01-01T12:00:00Z"/>
            <performer>
               <reference value="Organization/378fbe5f-5926-3a5c-4c64-5428df877b08"/>
            </performer>
            <valueQuantity>
               <value value="0.4"/>
               <comparator value="&lt;"/>
               <unit value="% w/w"/>
               <system value="http://unitsofmeasure.org"/>
               <code value="%"/>
            </valueQuantity>
            <component>
               <code>
                  <coding>
                     <system value="http://hl7.org/fhir/uv/pharm-quality/CodeSystem/cs-local-codes-drug-pq-example"/>
                     <code value="IMP"/>
                     <display value="Impurity"/>
                  </coding>
               </code>
               <valueCodeableConcept>
                  <text value="Impurity 1"/>
               </valueCodeableConcept>
            </component>
         </Observation>
      </resource>
   </entry>
   <entry>
      <fullUrl value="urn:uuid:fe6ca484-a755-9a0b-a074-b6ee0a907ff8"/>
      <resource>
         <Observation>
            <id value="observationDegradation-imp1-3"/>
            <instantiatesReference>
               <reference value="ObservationDefinition/Impurities"/>
            </instantiatesReference>
            <status value="final"/>
            <code>
               <coding>
                  <system value="http://hl7.org/fhir/uv/pharm-quality/CodeSystem/cs-local-codes-drug-pq-example"/>
                  <code value="Impurities"/>
                  <display value="Impurities"/>
               </coding>
               <text value="Impurities"/>
            </code>
            <subject>
               <reference value="Substance/substance-dxpq-ex1"/>
            </subject>
            <effectiveDateTime value="2023-01-01T12:00:00Z"/>
            <performer>
               <reference value="Organization/378fbe5f-5926-3a5c-4c64-5428df877b08"/>
            </performer>
            <valueQuantity>
               <value value="0.2"/>
               <comparator value="&lt;"/>
               <unit value="% w/w"/>
               <system value="http://unitsofmeasure.org"/>
               <code value="%"/>
            </valueQuantity>
            <component>
               <code>
                  <coding>
                     <system value="http://hl7.org/fhir/uv/pharm-quality/CodeSystem/cs-local-codes-drug-pq-example"/>
                     <code value="IMP"/>
                     <display value="Impurity"/>
                  </coding>
               </code>
               <valueCodeableConcept>
                  <text value="Impurity 1"/>
               </valueCodeableConcept>
            </component>
         </Observation>
      </resource>
   </entry>
   <entry>
      <fullUrl value="urn:uuid:02d9e6be-833c-2c6d-a64a-baa3935c959d"/>
      <resource>
         <Observation>
            <id value="observationDegradation-imp1Second"/>
            <instantiatesReference>
               <reference value="ObservationDefinition/Impurities"/>
            </instantiatesReference>
            <status value="final"/>
            <code>
               <coding>
                  <system value="http://hl7.org/fhir/uv/pharm-quality/CodeSystem/cs-local-codes-drug-pq-example"/>
                  <code value="Impurities"/>
                  <display value="Impurities"/>
               </coding>
               <text value="Impurities"/>
            </code>
            <subject>
               <reference value="Substance/actual-batch-substance-2"/>
            </subject>
            <effectiveDateTime value="2023-01-01T12:00:00Z"/>
            <performer>
               <reference value="Organization/378fbe5f-5926-3a5c-4c64-5428df877b08"/>
            </performer>
            <valueQuantity>
               <value value="0.55"/>
               <comparator value="&lt;"/>
               <unit value="% w/w"/>
               <system value="http://unitsofmeasure.org"/>
               <code value="%"/>
            </valueQuantity>
            <component>
               <code>
                  <coding>
                     <system value="http://hl7.org/fhir/uv/pharm-quality/CodeSystem/cs-local-codes-drug-pq-example"/>
                     <code value="IMP"/>
                     <display value="Impurity"/>
                  </coding>
               </code>
               <valueCodeableConcept>
                  <text value="Impurity 1"/>
               </valueCodeableConcept>
            </component>
         </Observation>
      </resource>
   </entry>
   <entry>
      <fullUrl value="urn:uuid:da92c71f-a12a-1980-11a3-80e3d1852244"/>
      <resource>
         <Observation>
            <id value="observationDegradation-imp2"/>
            <instantiatesReference>
               <reference value="ObservationDefinition/Impurities"/>
            </instantiatesReference>
            <status value="final"/>
            <code>
               <coding>
                  <system value="http://hl7.org/fhir/uv/pharm-quality/CodeSystem/cs-local-codes-drug-pq-example"/>
                  <code value="Impurities"/>
                  <display value="Impurities"/>
               </coding>
               <text value="Impurities"/>
            </code>
            <subject>
               <reference value="Substance/substance-dxpq-ex1"/>
            </subject>
            <effectiveDateTime value="2023-01-01T12:00:00Z"/>
            <performer>
               <reference value="Organization/378fbe5f-5926-3a5c-4c64-5428df877b08"/>
            </performer>
            <valueQuantity>
               <value value="0.5"/>
               <comparator value="&lt;"/>
               <unit value="% w/w"/>
               <system value="http://unitsofmeasure.org"/>
               <code value="%"/>
            </valueQuantity>
            <component>
               <code>
                  <coding>
                     <system value="http://hl7.org/fhir/uv/pharm-quality/CodeSystem/cs-local-codes-drug-pq-example"/>
                     <code value="IMP"/>
                     <display value="Impurity"/>
                  </coding>
               </code>
               <valueCodeableConcept>
                  <text value="Impurity 2"/>
               </valueCodeableConcept>
            </component>
         </Observation>
      </resource>
   </entry>
   <entry>
      <fullUrl value="urn:uuid:8bf75da1-9221-66fe-6725-c64cb45a57e6"/>
      <resource>
         <Observation>
            <id value="observationDegradation-imp2-2"/>
            <instantiatesReference>
               <reference value="ObservationDefinition/Impurities"/>
            </instantiatesReference>
            <status value="final"/>
            <code>
               <coding>
                  <system value="http://hl7.org/fhir/uv/pharm-quality/CodeSystem/cs-local-codes-drug-pq-example"/>
                  <code value="Impurities"/>
                  <display value="Impurities"/>
               </coding>
               <text value="Impurities"/>
            </code>
            <subject>
               <reference value="Substance/substance-dxpq-ex1"/>
            </subject>
            <effectiveDateTime value="2023-01-01T12:00:00Z"/>
            <performer>
               <reference value="Organization/378fbe5f-5926-3a5c-4c64-5428df877b08"/>
            </performer>
            <valueQuantity>
               <value value="0.4"/>
               <comparator value="&lt;"/>
               <unit value="% w/w"/>
               <system value="http://unitsofmeasure.org"/>
               <code value="%"/>
            </valueQuantity>
            <component>
               <code>
                  <coding>
                     <system value="http://hl7.org/fhir/uv/pharm-quality/CodeSystem/cs-local-codes-drug-pq-example"/>
                     <code value="IMP"/>
                     <display value="Impurity"/>
                  </coding>
               </code>
               <valueCodeableConcept>
                  <text value="Impurity 2"/>
               </valueCodeableConcept>
            </component>
         </Observation>
      </resource>
   </entry>
   <entry>
      <fullUrl value="urn:uuid:31bfeff4-4a7d-3be5-878e-fb674d3d5487"/>
      <resource>
         <Observation>
            <id value="observationDegradation-imp2-3"/>
            <instantiatesReference>
               <reference value="ObservationDefinition/Impurities"/>
            </instantiatesReference>
            <status value="final"/>
            <code>
               <coding>
                  <system value="http://hl7.org/fhir/uv/pharm-quality/CodeSystem/cs-local-codes-drug-pq-example"/>
                  <code value="Impurities"/>
                  <display value="Impurities"/>
               </coding>
               <text value="Impurities"/>
            </code>
            <subject>
               <reference value="Substance/substance-dxpq-ex1"/>
            </subject>
            <effectiveDateTime value="2023-01-01T12:00:00Z"/>
            <performer>
               <reference value="Organization/378fbe5f-5926-3a5c-4c64-5428df877b08"/>
            </performer>
            <valueQuantity>
               <value value="0.2"/>
               <comparator value="&lt;"/>
               <unit value="% w/w"/>
               <system value="http://unitsofmeasure.org"/>
               <code value="%"/>
            </valueQuantity>
            <component>
               <code>
                  <coding>
                     <system value="http://hl7.org/fhir/uv/pharm-quality/CodeSystem/cs-local-codes-drug-pq-example"/>
                     <code value="IMP"/>
                     <display value="Impurity"/>
                  </coding>
               </code>
               <valueCodeableConcept>
                  <text value="Impurity 2"/>
               </valueCodeableConcept>
            </component>
         </Observation>
      </resource>
   </entry>
   <entry>
      <fullUrl value="urn:uuid:da92c71f-a12a-1980-21a3-80e3d1852244"/>
      <resource>
         <Observation>
            <id value="observationDegradation-imp2Second"/>
            <instantiatesReference>
               <reference value="ObservationDefinition/Impurities"/>
            </instantiatesReference>
            <status value="final"/>
            <code>
               <coding>
                  <system value="http://hl7.org/fhir/uv/pharm-quality/CodeSystem/cs-local-codes-drug-pq-example"/>
                  <code value="Impurities"/>
                  <display value="Impurities"/>
               </coding>
               <text value="Impurities"/>
            </code>
            <subject>
               <reference value="Substance/actual-batch-substance-2"/>
            </subject>
            <effectiveDateTime value="2023-01-01T12:00:00Z"/>
            <performer>
               <reference value="Organization/378fbe5f-5926-3a5c-4c64-5428df877b08"/>
            </performer>
            <valueQuantity>
               <value value="0.56"/>
               <comparator value="&lt;"/>
               <unit value="% w/w"/>
               <system value="http://unitsofmeasure.org"/>
               <code value="%"/>
            </valueQuantity>
            <component>
               <code>
                  <coding>
                     <system value="http://hl7.org/fhir/uv/pharm-quality/CodeSystem/cs-local-codes-drug-pq-example"/>
                     <code value="IMP"/>
                     <display value="Impurity"/>
                  </coding>
               </code>
               <valueCodeableConcept>
                  <text value="Impurity 2"/>
               </valueCodeableConcept>
            </component>
         </Observation>
      </resource>
   </entry>
   <entry>
      <fullUrl value="urn:uuid:732237a9-4b3b-27cc-99ca-6b913e622a29"/>
      <resource>
         <Observation>
            <id value="observationDegradation-imp3"/>
            <instantiatesReference>
               <reference value="ObservationDefinition/Impurities"/>
            </instantiatesReference>
            <status value="final"/>
            <code>
               <coding>
                  <system value="http://hl7.org/fhir/uv/pharm-quality/CodeSystem/cs-local-codes-drug-pq-example"/>
                  <code value="Impurities"/>
                  <display value="Impurities"/>
               </coding>
               <text value="Impurities"/>
            </code>
            <subject>
               <reference value="Substance/substance-dxpq-ex1"/>
            </subject>
            <effectiveDateTime value="2023-01-01T12:00:00Z"/>
            <performer>
               <reference value="Organization/378fbe5f-5926-3a5c-4c64-5428df877b08"/>
            </performer>
            <valueQuantity>
               <value value="0.1"/>
               <comparator value="&lt;"/>
               <unit value="% w/w"/>
               <system value="http://unitsofmeasure.org"/>
               <code value="%"/>
            </valueQuantity>
            <component>
               <code>
                  <coding>
                     <system value="http://hl7.org/fhir/uv/pharm-quality/CodeSystem/cs-local-codes-drug-pq-example"/>
                     <code value="IMP"/>
                     <display value="Impurity"/>
                  </coding>
               </code>
               <valueCodeableConcept>
                  <text value="Impurity 3"/>
               </valueCodeableConcept>
            </component>
         </Observation>
      </resource>
   </entry>
   <entry>
      <fullUrl value="urn:uuid:732237a9-4b3b-27dc-99ca-6b913e622a29"/>
      <resource>
         <Observation>
            <id value="observationDegradation-imp3Second"/>
            <instantiatesReference>
               <reference value="ObservationDefinition/Impurities"/>
            </instantiatesReference>
            <status value="final"/>
            <code>
               <coding>
                  <system value="http://hl7.org/fhir/uv/pharm-quality/CodeSystem/cs-local-codes-drug-pq-example"/>
                  <code value="Impurities"/>
                  <display value="Impurities"/>
               </coding>
               <text value="Impurities"/>
            </code>
            <subject>
               <reference value="Substance/actual-batch-substance-2"/>
            </subject>
            <effectiveDateTime value="2023-01-01T12:00:00Z"/>
            <performer>
               <reference value="Organization/378fbe5f-5926-3a5c-4c64-5428df877b08"/>
            </performer>
            <valueQuantity>
               <value value="0.13"/>
               <comparator value="&lt;"/>
               <unit value="% w/w"/>
               <system value="http://unitsofmeasure.org"/>
               <code value="%"/>
            </valueQuantity>
            <component>
               <code>
                  <coding>
                     <system value="http://hl7.org/fhir/uv/pharm-quality/CodeSystem/cs-local-codes-drug-pq-example"/>
                     <code value="IMP"/>
                     <display value="Impurity"/>
                  </coding>
               </code>
               <valueCodeableConcept>
                  <text value="Impurity 3"/>
               </valueCodeableConcept>
            </component>
         </Observation>
      </resource>
   </entry>
   <entry>
      <fullUrl value="urn:uuid:52afbeb4-4958-a275-a0ca-d70b2b5240ec"/>
      <resource>
         <Observation>
            <id value="observationDegradation-imp3-2"/>
            <instantiatesReference>
               <reference value="ObservationDefinition/Impurities"/>
            </instantiatesReference>
            <status value="final"/>
            <code>
               <coding>
                  <system value="http://hl7.org/fhir/uv/pharm-quality/CodeSystem/cs-local-codes-drug-pq-example"/>
                  <code value="Impurities"/>
                  <display value="Impurities"/>
               </coding>
               <text value="Impurities"/>
            </code>
            <subject>
               <reference value="Substance/substance-dxpq-ex1"/>
            </subject>
            <effectiveDateTime value="2023-01-01T12:00:00Z"/>
            <performer>
               <reference value="Organization/378fbe5f-5926-3a5c-4c64-5428df877b08"/>
            </performer>
            <valueQuantity>
               <value value="0.1"/>
               <comparator value="&lt;"/>
               <unit value="% w/w"/>
               <system value="http://unitsofmeasure.org"/>
               <code value="%"/>
            </valueQuantity>
            <component>
               <code>
                  <coding>
                     <system value="http://hl7.org/fhir/uv/pharm-quality/CodeSystem/cs-local-codes-drug-pq-example"/>
                     <code value="IMP"/>
                     <display value="Impurity"/>
                  </coding>
               </code>
               <valueCodeableConcept>
                  <text value="Impurity 3"/>
               </valueCodeableConcept>
            </component>
         </Observation>
      </resource>
   </entry>
   <entry>
      <fullUrl value="urn:uuid:7fc395b1-59e4-78be-0512-cf92133c0fac"/>
      <resource>
         <Observation>
            <id value="observationDegradation-imp3-3"/>
            <instantiatesReference>
               <reference value="ObservationDefinition/Impurities"/>
            </instantiatesReference>
            <status value="final"/>
            <code>
               <coding>
                  <system value="http://hl7.org/fhir/uv/pharm-quality/CodeSystem/cs-local-codes-drug-pq-example"/>
                  <code value="Impurities"/>
                  <display value="Impurities"/>
               </coding>
               <text value="Impurities"/>
            </code>
            <subject>
               <reference value="Substance/substance-dxpq-ex1"/>
            </subject>
            <effectiveDateTime value="2023-01-01T12:00:00Z"/>
            <performer>
               <reference value="Organization/378fbe5f-5926-3a5c-4c64-5428df877b08"/>
            </performer>
            <valueQuantity>
               <value value="0.1"/>
               <comparator value="&lt;"/>
               <unit value="% w/w"/>
               <system value="http://unitsofmeasure.org"/>
               <code value="%"/>
            </valueQuantity>
            <component>
               <code>
                  <coding>
                     <system value="http://hl7.org/fhir/uv/pharm-quality/CodeSystem/cs-local-codes-drug-pq-example"/>
                     <code value="IMP"/>
                     <display value="Impurity"/>
                  </coding>
               </code>
               <valueCodeableConcept>
                  <text value="Impurity 3"/>
               </valueCodeableConcept>
            </component>
         </Observation>
      </resource>
   </entry>
   <entry>
      <fullUrl value="urn:uuid:10b80cbd-45d3-9be1-63b9-29f04b47376c"/>
      <resource>
         <Observation>
            <id value="observationDegradation-imp-total"/>
            <instantiatesReference>
               <reference value="ObservationDefinition/Impurities"/>
            </instantiatesReference>
            <status value="final"/>
            <code>
               <coding>
                  <system value="http://hl7.org/fhir/uv/pharm-quality/CodeSystem/cs-local-codes-drug-pq-example"/>
                  <code value="Impurities"/>
                  <display value="Impurities"/>
               </coding>
               <text value="Impurities"/>
            </code>
            <subject>
               <reference value="Substance/substance-dxpq-ex1"/>
            </subject>
            <effectiveDateTime value="2023-01-01T12:00:00Z"/>
            <performer>
               <reference value="Organization/378fbe5f-5926-3a5c-4c64-5428df877b08"/>
            </performer>
            <valueQuantity>
               <value value="0.02"/>
               <comparator value="&lt;"/>
               <unit value="% w/w"/>
               <system value="http://unitsofmeasure.org"/>
               <code value="%"/>
            </valueQuantity>
            <component>
               <code>
                  <coding>
                     <system value="http://hl7.org/fhir/uv/pharm-quality/CodeSystem/cs-local-codes-drug-pq-example"/>
                     <code value="IMP"/>
                     <display value="Impurity"/>
                  </coding>
               </code>
               <valueCodeableConcept>
                  <text value="Total impurities"/>
               </valueCodeableConcept>
            </component>
         </Observation>
      </resource>
   </entry>
   <entry>
      <fullUrl value="urn:uuid:84f015ac-9572-324f-8013-0b999cc95bbd"/>
      <resource>
         <Observation>
            <id value="observationDegradation-imp-total-2"/>
            <instantiatesReference>
               <reference value="ObservationDefinition/Impurities"/>
            </instantiatesReference>
            <status value="final"/>
            <code>
               <coding>
                  <system value="http://hl7.org/fhir/uv/pharm-quality/CodeSystem/cs-local-codes-drug-pq-example"/>
                  <code value="Impurities"/>
                  <display value="Impurities"/>
               </coding>
               <text value="Impurities"/>
            </code>
            <subject>
               <reference value="Substance/substance-dxpq-ex1"/>
            </subject>
            <effectiveDateTime value="2023-01-01T12:00:00Z"/>
            <performer>
               <reference value="Organization/378fbe5f-5926-3a5c-4c64-5428df877b08"/>
            </performer>
            <valueQuantity>
               <value value="0.02"/>
               <comparator value="&lt;"/>
               <unit value="% w/w"/>
               <system value="http://unitsofmeasure.org"/>
               <code value="%"/>
            </valueQuantity>
            <component>
               <code>
                  <coding>
                     <system value="http://hl7.org/fhir/uv/pharm-quality/CodeSystem/cs-local-codes-drug-pq-example"/>
                     <code value="IMP"/>
                     <display value="Impurity"/>
                  </coding>
               </code>
               <valueCodeableConcept>
                  <text value="Total impurities"/>
               </valueCodeableConcept>
            </component>
         </Observation>
      </resource>
   </entry>
   <entry>
      <fullUrl value="urn:uuid:987daeaa-4c2a-72b7-780f-4a9403163a3e"/>
      <resource>
         <Observation>
            <id value="observationDegradation-imp-total-3"/>
            <instantiatesReference>
               <reference value="ObservationDefinition/Impurities"/>
            </instantiatesReference>
            <status value="final"/>
            <code>
               <coding>
                  <system value="http://hl7.org/fhir/uv/pharm-quality/CodeSystem/cs-local-codes-drug-pq-example"/>
                  <code value="Impurities"/>
                  <display value="Impurities"/>
               </coding>
               <text value="Impurities"/>
            </code>
            <subject>
               <reference value="Substance/substance-dxpq-ex1"/>
            </subject>
            <effectiveDateTime value="2023-01-01T12:00:00Z"/>
            <performer>
               <reference value="Organization/378fbe5f-5926-3a5c-4c64-5428df877b08"/>
            </performer>
            <valueQuantity>
               <value value="0.02"/>
               <comparator value="&lt;"/>
               <unit value="% w/w"/>
               <system value="http://unitsofmeasure.org"/>
               <code value="%"/>
            </valueQuantity>
            <component>
               <code>
                  <coding>
                     <system value="http://hl7.org/fhir/uv/pharm-quality/CodeSystem/cs-local-codes-drug-pq-example"/>
                     <code value="IMP"/>
                     <display value="Impurity"/>
                  </coding>
               </code>
               <valueCodeableConcept>
                        <!-- could have the code of an imr substance, or could have an extension to point to it as a resource -->
                  <text value="Total impurities"/>
               </valueCodeableConcept>
            </component>
         </Observation>
      </resource>
   </entry>
   <entry>
      <fullUrl value="urn:uuid:10b80cbd-45d4-9be1-63b9-29f04b47376c"/>
      <resource>
         <Observation>
            <id value="observationDegradation-imp-totalSecond"/>
            <instantiatesReference>
               <reference value="ObservationDefinition/Impurities"/>
            </instantiatesReference>
            <status value="final"/>
            <code>
               <coding>
                  <system value="http://hl7.org/fhir/uv/pharm-quality/CodeSystem/cs-local-codes-drug-pq-example"/>
                  <code value="Impurities"/>
                  <display value="Impurities"/>
               </coding>
               <text value="Impurities"/>
            </code>
            <subject>
               <reference value="Substance/actual-batch-substance-2"/>
            </subject>
            <effectiveDateTime value="2023-01-01T12:00:00Z"/>
            <performer>
               <reference value="Organization/378fbe5f-5926-3a5c-4c64-5428df877b08"/>
            </performer>
            <valueQuantity>
               <value value="0.18"/>
               <comparator value="&lt;"/>
               <unit value="% w/w"/>
               <system value="http://unitsofmeasure.org"/>
               <code value="%"/>
            </valueQuantity>
            <component>
               <code>
                  <coding>
                     <system value="http://hl7.org/fhir/uv/pharm-quality/CodeSystem/cs-local-codes-drug-pq-example"/>
                     <code value="IMP"/>
                     <display value="Impurity"/>
                  </coding>
               </code>
               <valueCodeableConcept>
                  <text value="Total impurities"/>
               </valueCodeableConcept>
            </component>
         </Observation>
      </resource>
   </entry>
   <entry>
      <fullUrl value="urn:uuid:ff26533d-88a8-7f18-a275-42dc1373a388"/>
      <resource>
         <Observation>
            <id value="observationElemental"/>
            <instantiatesReference>
               <reference value="ObservationDefinition/Elemental"/>
            </instantiatesReference>
            <status value="final"/>
            <code>
               <coding>
                  <system value="http://hl7.org/fhir/uv/pharm-quality/CodeSystem/cs-local-codes-drug-pq-example"/>
                  <code value="Elemental"/>
                  <display value="Elemental"/>
               </coding>
            </code>
            <subject>
               <reference value="Substance/substance-dxpq-ex1"/>
            </subject>
            <effectiveDateTime value="2023-01-01T12:00:00Z"/>
            <performer>
               <reference value="Organization/378fbe5f-5926-3a5c-4c64-5428df877b08"/>
            </performer>
            <valueString value="As, Cd, Hg, Pb: Not detected. Pd: &lt; 29 ppm"/>
            <component>
               <code>
                  <coding>
                     <system value="http://hl7.org/fhir/uv/pharm-quality/CodeSystem/cs-local-codes-drug-pq-example"/>
                     <code value="IMP"/>
                     <display value="Impurity"/>
                  </coding>
               </code>
               <valueCodeableConcept>
                  <text value="Impurity - Elemental"/>
               </valueCodeableConcept>
            </component>
         </Observation>
      </resource>
   </entry>
   <entry>
      <fullUrl value="urn:uuid:c99666d2-7962-9a71-58f6-7b2e5aa662f5"/>
      <resource>
         <Observation>
            <id value="observationElemental2"/>
            <instantiatesReference>
               <reference value="ObservationDefinition/Elemental"/>
            </instantiatesReference>
            <status value="final"/>
            <code>
               <coding>
                  <system value="http://hl7.org/fhir/uv/pharm-quality/CodeSystem/cs-local-codes-drug-pq-example"/>
                  <code value="Elemental"/>
                  <display value="Elemental"/>
               </coding>
               <text value="Elemental"/>
            </code>
            <subject>
               <reference value="Substance/substance-dxpq-ex1"/>
            </subject>
            <effectiveDateTime value="2023-01-01T12:00:00Z"/>
            <performer>
               <reference value="Organization/378fbe5f-5926-3a5c-4c64-5428df877b08"/>
            </performer>
            <dataAbsentReason>
               <coding>
                  <system value="http://terminology.hl7.org/CodeSystem/data-absent-reason"/>
                  <code value="not-performed"/>
                  <display value="Not Performed"/>
               </coding>
               <text value="Not tested"/>
            </dataAbsentReason>
         </Observation>
      </resource>
   </entry>
   <entry>
      <fullUrl value="urn:uuid:c18e21d3-7113-4d08-4ff3-0c9718596f64"/>
      <resource>
         <Observation>
            <id value="observationElemental3"/>
            <instantiatesReference>
               <reference value="ObservationDefinition/Elemental"/>
            </instantiatesReference>
            <status value="final"/>
            <code>
               <coding>
                  <system value="http://hl7.org/fhir/uv/pharm-quality/CodeSystem/cs-local-codes-drug-pq-example"/>
                  <code value="Elemental"/>
                  <display value="Elemental"/>
               </coding>
               <text value="Elemental"/>
            </code>
            <subject>
               <reference value="Substance/substance-dxpq-ex1"/>
            </subject>
            <effectiveDateTime value="2023-01-01T12:00:00Z"/>
            <performer>
               <reference value="Organization/378fbe5f-5926-3a5c-4c64-5428df877b08"/>
            </performer>
            <dataAbsentReason>
               <coding>
                  <system value="http://terminology.hl7.org/CodeSystem/data-absent-reason"/>
                  <code value="not-performed"/>
                  <display value="Not Performed"/>
               </coding>
               <text value="Not tested"/>
            </dataAbsentReason>
         </Observation>
      </resource>
   </entry>
   <entry>
      <fullUrl value="urn:uuid:ff26533d-88a8-7f18-a275-52dc1373a388"/>
      <resource>
         <Observation>
            <id value="observationElementalSecond"/>
            <instantiatesReference>
               <reference value="ObservationDefinition/Elemental"/>
            </instantiatesReference>
            <status value="final"/>
            <code>
               <coding>
                  <system value="http://hl7.org/fhir/uv/pharm-quality/CodeSystem/cs-local-codes-drug-pq-example"/>
                  <code value="Elemental"/>
                  <display value="Elemental"/>
               </coding>
            </code>
            <subject>
               <reference value="Substance/actual-batch-substance-2"/>
            </subject>
            <effectiveDateTime value="2023-01-01T12:00:00Z"/>
            <performer>
               <reference value="Organization/378fbe5f-5926-3a5c-4c64-5428df877b08"/>
            </performer>
            <valueString value="As, Cd, Hg, Pb: Not detected. Pd: &lt; 31 ppm"/>
            <component>
               <code>
                  <coding>
                     <system value="http://hl7.org/fhir/uv/pharm-quality/CodeSystem/cs-local-codes-drug-pq-example"/>
                     <code value="IMP"/>
                     <display value="Impurity"/>
                  </coding>
               </code>
               <valueCodeableConcept>
                  <text value="Impurity - Elemental"/>
               </valueCodeableConcept>
            </component>
         </Observation>
      </resource>
   </entry>
   <entry>
      <fullUrl value="urn:uuid:ff26533d-88b8-7f18-a275-42dc1373a388"/>
      <resource>
         <Observation>
            <id value="observationAssignedPurity1"/>
            <instantiatesReference>
               <reference value="ObservationDefinition/AssignedPurity"/>
            </instantiatesReference>
            <status value="final"/>
            <code>
               <coding>
                  <system value="http://hl7.org/fhir/uv/pharm-quality/CodeSystem/cs-local-codes-drug-pq-example"/>
                  <code value="AssignedPurity"/>
                  <display value="Assigned Purity"/>
               </coding>
            </code>
            <subject>
               <reference value="Substance/substance-dxpq-ex1"/>
            </subject>
            <effectiveDateTime value="2021-01-01T12:00:00Z"/>
            <performer>
               <reference value="Organization/378fbe5f-5926-3a5c-4c64-5428df877b08"/>
            </performer>
            <valueQuantity>
               <value value="85.22"/>
               <unit value="%"/>
            </valueQuantity>
            <component>
               <code>
                  <coding>
                     <system value="http://hl7.org/fhir/uv/pharm-quality/CodeSystem/cs-local-codes-drug-pq-example"/>
                     <code value="IMP"/>
                     <display value="Impurity"/>
                  </coding>
               </code>
               <valueCodeableConcept>
                  <text value="Impurity - Elemental"/>
               </valueCodeableConcept>
            </component>
         </Observation>
      </resource>
   </entry>
   <entry>
      <fullUrl value="urn:uuid:ff26534d-88b8-7f18-a275-42dc1373a388"/>
      <resource>
         <Observation>
            <id value="observationAssignedPurity2"/>
            <instantiatesReference>
               <reference value="ObservationDefinition/AssignedPurity"/>
            </instantiatesReference>
            <status value="final"/>
            <code>
               <coding>
                  <system value="http://hl7.org/fhir/uv/pharm-quality/CodeSystem/cs-local-codes-drug-pq-example"/>
                  <code value="AssignedPurity"/>
                  <display value="Assigned Purity"/>
               </coding>
            </code>
            <subject>
               <reference value="Substance/substance-dxpq-ex1"/>
            </subject>
            <effectiveDateTime value="2022-01-01T12:00:00Z"/>
            <performer>
               <reference value="Organization/378fbe5f-5926-3a5c-4c64-5428df877b08"/>
            </performer>
            <valueQuantity>
               <value value="85.33"/>
               <unit value="%"/>
            </valueQuantity>
            <component>
               <code>
                  <coding>
                     <system value="http://hl7.org/fhir/uv/pharm-quality/CodeSystem/cs-local-codes-drug-pq-example"/>
                     <code value="IMP"/>
                     <display value="Impurity"/>
                  </coding>
               </code>
               <valueCodeableConcept>
                  <text value="Impurity - Elemental"/>
               </valueCodeableConcept>
            </component>
         </Observation>
      </resource>
   </entry>
   <entry>
      <fullUrl value="urn:uuid:ff26544d-88b8-7f18-a275-42dc1373a388"/>
      <resource>
         <Observation>
            <id value="observationAssignedPurity3"/>
            <instantiatesReference>
               <reference value="ObservationDefinition/AssignedPurity"/>
            </instantiatesReference>
            <status value="final"/>
            <code>
               <coding>
                  <system value="http://hl7.org/fhir/uv/pharm-quality/CodeSystem/cs-local-codes-drug-pq-example"/>
                  <code value="AssignedPurity"/>
                  <display value="Assigned Purity"/>
               </coding>
            </code>
            <subject>
               <reference value="Substance/substance-dxpq-ex1"/>
            </subject>
            <effectiveDateTime value="2023-01-01T12:00:00Z"/>
            <performer>
               <reference value="Organization/378fbe5f-5926-3a5c-4c64-5428df877b08"/>
            </performer>
            <valueQuantity>
               <value value="85.44"/>
               <unit value="%"/>
            </valueQuantity>
            <component>
               <code>
                  <coding>
                     <system value="http://hl7.org/fhir/uv/pharm-quality/CodeSystem/cs-local-codes-drug-pq-example"/>
                     <code value="IMP"/>
                     <display value="Impurity"/>
                  </coding>
               </code>
               <valueCodeableConcept>
                  <text value="Impurity - Elemental"/>
               </valueCodeableConcept>
            </component>
         </Observation>
      </resource>
   </entry>
   <entry>
      <fullUrl value="urn:uuid:ff36533d-88b8-7f18-a275-42dc1373a388"/>
      <resource>
         <Observation>
            <id value="observationAssignedPurity1second"/>
            <instantiatesReference>
               <reference value="ObservationDefinition/AssignedPurity"/>
            </instantiatesReference>
            <status value="final"/>
            <code>
               <coding>
                  <system value="http://hl7.org/fhir/uv/pharm-quality/CodeSystem/cs-local-codes-drug-pq-example"/>
                  <code value="AssignedPurity"/>
                  <display value="Assigned Purity"/>
               </coding>
            </code>
            <subject>
               <reference value="Substance/actual-batch-substance-2"/>
            </subject>
            <effectiveDateTime value="2021-01-01T12:00:00Z"/>
            <performer>
               <reference value="Organization/378fbe5f-5926-3a5c-4c64-5428df877b08"/>
            </performer>
            <valueQuantity>
               <value value="75.22"/>
               <unit value="%"/>
            </valueQuantity>
            <component>
               <code>
                  <coding>
                     <system value="http://hl7.org/fhir/uv/pharm-quality/CodeSystem/cs-local-codes-drug-pq-example"/>
                     <code value="IMP"/>
                     <display value="Impurity"/>
                  </coding>
               </code>
               <valueCodeableConcept>
                  <text value="Impurity - Elemental"/>
               </valueCodeableConcept>
            </component>
         </Observation>
      </resource>
   </entry>
   <entry>
      <fullUrl value="urn:uuid:f8160692-a7a8-3fa6-9f35-e7df35f51ac0"/>
      <resource>
         <Observation>
            <id value="observationSolvents-sol1"/>
            <instantiatesReference>
               <reference value="ObservationDefinition/Solvents"/>
            </instantiatesReference>
            <status value="final"/>
            <code>
               <coding>
                  <system value="http://hl7.org/fhir/uv/pharm-quality/CodeSystem/cs-local-codes-drug-pq-example"/>
                  <code value="SOL"/>
                  <display value="Residual solvents"/>
               </coding>
            </code>
            <subject>
               <reference value="Substance/substance-dxpq-ex1"/>
            </subject>
            <effectiveDateTime value="2023-01-01T12:00:00Z"/>
            <performer>
               <reference value="Organization/378fbe5f-5926-3a5c-4c64-5428df877b08"/>
            </performer>
            <valueQuantity>
               <value value="0.1"/>
               <unit value="% w/w"/>
               <system value="http://unitsofmeasure.org"/>
               <code value="%"/>
            </valueQuantity>
            <component>
               <code>
                  <coding>
                     <system value="http://hl7.org/fhir/uv/pharm-quality/CodeSystem/cs-local-codes-drug-pq-example"/>
                     <code value="SOLV"/>
                     <display value="Solvent"/>
                  </coding>
               </code>
               <valueCodeableConcept>
                  <text value="Solvent 1"/>
               </valueCodeableConcept>
            </component>
         </Observation>
      </resource>
   </entry>
   <entry>
      <fullUrl value="urn:uuid:a531aee9-4c21-06af-352c-a3615b5d957e"/>
      <resource>
         <Observation>
            <id value="observationSolvents-sol1-2"/>
            <instantiatesReference>
               <reference value="ObservationDefinition/Solvents"/>
            </instantiatesReference>
            <status value="final"/>
            <code>
               <coding>
                  <system value="http://hl7.org/fhir/uv/pharm-quality/CodeSystem/cs-local-codes-drug-pq-example"/>
                  <code value="SOL"/>
                  <display value="Residual solvents"/>
               </coding>
            </code>
            <subject>
               <reference value="Substance/substance-dxpq-ex1"/>
            </subject>
            <effectiveDateTime value="2023-01-01T12:00:00Z"/>
            <performer>
               <reference value="Organization/378fbe5f-5926-3a5c-4c64-5428df877b08"/>
            </performer>
            <valueQuantity>
               <value value="0.1"/>
               <unit value="% w/w"/>
               <system value="http://unitsofmeasure.org"/>
               <code value="%"/>
            </valueQuantity>
            <component>
               <code>
                  <coding>
                     <system value="http://hl7.org/fhir/uv/pharm-quality/CodeSystem/cs-local-codes-drug-pq-example"/>
                     <code value="SOLV"/>
                     <display value="Solvent"/>
                  </coding>
               </code>
               <valueCodeableConcept>
                  <text value="Solvent 1"/>
               </valueCodeableConcept>
            </component>
         </Observation>
      </resource>
   </entry>
   <entry>
      <fullUrl value="urn:uuid:033ce81d-5f0d-7a3e-93d3-fc64e122a1fd"/>
      <resource>
         <Observation>
            <id value="observationSolvents-sol1-3"/>
            <instantiatesReference>
               <reference value="ObservationDefinition/Solvents"/>
            </instantiatesReference>
            <status value="final"/>
            <code>
               <coding>
                  <system value="http://hl7.org/fhir/uv/pharm-quality/CodeSystem/cs-local-codes-drug-pq-example"/>
                  <code value="SOL"/>
                  <display value="Residual solvents"/>
               </coding>
            </code>
            <subject>
               <reference value="Substance/substance-dxpq-ex1"/>
            </subject>
            <effectiveDateTime value="2023-01-01T12:00:00Z"/>
            <performer>
               <reference value="Organization/378fbe5f-5926-3a5c-4c64-5428df877b08"/>
            </performer>
            <valueQuantity>
               <value value="0.1"/>
               <unit value="% w/w"/>
               <system value="http://unitsofmeasure.org"/>
               <code value="%"/>
            </valueQuantity>
            <component>
               <code>
                  <coding>
                     <system value="http://hl7.org/fhir/uv/pharm-quality/CodeSystem/cs-local-codes-drug-pq-example"/>
                     <code value="SOLV"/>
                     <display value="Solvent"/>
                  </coding>
               </code>
               <valueCodeableConcept>
                  <text value="Solvent 1"/>
               </valueCodeableConcept>
            </component>
         </Observation>
      </resource>
   </entry>
   <entry>
      <fullUrl value="urn:uuid:f8160692-b7a8-3fa6-9f35-e7df35f51ac0"/>
      <resource>
         <Observation>
            <id value="observationSolvents-sol1Second"/>
            <instantiatesReference>
               <reference value="ObservationDefinition/Solvents"/>
            </instantiatesReference>
            <status value="final"/>
            <code>
               <coding>
                  <system value="http://hl7.org/fhir/uv/pharm-quality/CodeSystem/cs-local-codes-drug-pq-example"/>
                  <code value="SOL"/>
                  <display value="Residual solvents"/>
               </coding>
            </code>
            <subject>
               <reference value="Substance/actual-batch-substance-2"/>
            </subject>
            <effectiveDateTime value="2023-01-01T12:00:00Z"/>
            <performer>
               <reference value="Organization/378fbe5f-5926-3a5c-4c64-5428df877b08"/>
            </performer>
            <valueQuantity>
               <value value="0.13"/>
               <unit value="% w/w"/>
               <system value="http://unitsofmeasure.org"/>
               <code value="%"/>
            </valueQuantity>
            <component>
               <code>
                  <coding>
                     <system value="http://hl7.org/fhir/uv/pharm-quality/CodeSystem/cs-local-codes-drug-pq-example"/>
                     <code value="SOLV"/>
                     <display value="Solvent"/>
                  </coding>
               </code>
               <valueCodeableConcept>
                  <text value="Solvent 1"/>
               </valueCodeableConcept>
            </component>
         </Observation>
      </resource>
   </entry>
   <entry>
      <fullUrl value="urn:uuid:ba8a182e-8571-6cbd-047b-612735d599d2"/>
      <resource>
         <Observation>
            <id value="observationSolvents-sol2"/>
            <instantiatesReference>
               <reference value="ObservationDefinition/Solvents"/>
            </instantiatesReference>
            <status value="final"/>
            <code>
               <coding>
                  <system value="http://hl7.org/fhir/uv/pharm-quality/CodeSystem/cs-local-codes-drug-pq-example"/>
                  <code value="SOL"/>
                  <display value="Residual solvents"/>
               </coding>
            </code>
            <subject>
               <reference value="Substance/substance-dxpq-ex1"/>
            </subject>
            <effectiveDateTime value="2023-01-01T12:00:00Z"/>
            <performer>
               <reference value="Organization/378fbe5f-5926-3a5c-4c64-5428df877b08"/>
            </performer>
            <valueQuantity>
               <value value="1.4"/>
               <unit value="% w/w"/>
               <system value="http://unitsofmeasure.org"/>
               <code value="%"/>
            </valueQuantity>
            <component>
               <code>
                  <coding>
                     <system value="http://hl7.org/fhir/uv/pharm-quality/CodeSystem/cs-local-codes-drug-pq-example"/>
                     <code value="SOLV"/>
                     <display value="Solvent"/>
                  </coding>
               </code>
               <valueCodeableConcept>
                  <text value="Solvent 2"/>
               </valueCodeableConcept>
            </component>
         </Observation>
      </resource>
   </entry>
   <entry>
      <fullUrl value="urn:uuid:0b5b94cc-7a1a-4ada-66c7-954ceb528d67"/>
      <resource>
         <Observation>
            <id value="observationSolvents-sol2-2"/>
            <instantiatesReference>
               <reference value="ObservationDefinition/Solvents"/>
            </instantiatesReference>
            <status value="final"/>
            <code>
               <coding>
                  <system value="http://hl7.org/fhir/uv/pharm-quality/CodeSystem/cs-local-codes-drug-pq-example"/>
                  <code value="SOL"/>
                  <display value="Residual solvents"/>
               </coding>
            </code>
            <subject>
               <reference value="Substance/substance-dxpq-ex1"/>
            </subject>
            <effectiveDateTime value="2023-01-01T12:00:00Z"/>
            <performer>
               <reference value="Organization/378fbe5f-5926-3a5c-4c64-5428df877b08"/>
            </performer>
            <valueQuantity>
               <value value="1.5"/>
               <unit value="% w/w"/>
               <system value="http://unitsofmeasure.org"/>
               <code value="%"/>
            </valueQuantity>
            <component>
               <code>
                  <coding>
                     <system value="http://hl7.org/fhir/uv/pharm-quality/CodeSystem/cs-local-codes-drug-pq-example"/>
                     <code value="SOLV"/>
                     <display value="Solvent"/>
                  </coding>
               </code>
               <valueCodeableConcept>
                  <text value="Solvent 2"/>
               </valueCodeableConcept>
            </component>
         </Observation>
      </resource>
   </entry>
   <entry>
      <fullUrl value="urn:uuid:6afaacee-11a6-58b2-47df-5f79722c66ac"/>
      <resource>
         <Observation>
            <id value="observationSolvents-sol2-3"/>
            <instantiatesReference>
               <reference value="ObservationDefinition/Solvents"/>
            </instantiatesReference>
            <status value="final"/>
            <code>
               <coding>
                  <system value="http://hl7.org/fhir/uv/pharm-quality/CodeSystem/cs-local-codes-drug-pq-example"/>
                  <code value="SOL"/>
                  <display value="Residual solvents"/>
               </coding>
            </code>
            <subject>
               <reference value="Substance/substance-dxpq-ex1"/>
            </subject>
            <effectiveDateTime value="2023-01-01T12:00:00Z"/>
            <performer>
               <reference value="Organization/378fbe5f-5926-3a5c-4c64-5428df877b08"/>
            </performer>
            <valueQuantity>
               <value value="1.2"/>
               <unit value="% w/w"/>
               <system value="http://unitsofmeasure.org"/>
               <code value="%"/>
            </valueQuantity>
            <component>
               <code>
                  <coding>
                     <system value="http://hl7.org/fhir/uv/pharm-quality/CodeSystem/cs-local-codes-drug-pq-example"/>
                     <code value="SOLV"/>
                     <display value="Solvent"/>
                  </coding>
               </code>
               <valueCodeableConcept>
                  <text value="Solvent 2"/>
               </valueCodeableConcept>
            </component>
         </Observation>
      </resource>
   </entry>
   <entry>
      <fullUrl value="urn:uuid:ba8a182e-9571-6cbd-047b-612735d599d2"/>
      <resource>
         <Observation>
            <id value="observationSolvents-sol2Second"/>
            <instantiatesReference>
               <reference value="ObservationDefinition/Solvents"/>
            </instantiatesReference>
            <status value="final"/>
            <code>
               <coding>
                  <system value="http://hl7.org/fhir/uv/pharm-quality/CodeSystem/cs-local-codes-drug-pq-example"/>
                  <code value="SOL"/>
                  <display value="Residual solvents"/>
               </coding>
            </code>
            <subject>
               <reference value="Substance/actual-batch-substance-2"/>
            </subject>
            <effectiveDateTime value="2023-01-01T12:00:00Z"/>
            <performer>
               <reference value="Organization/378fbe5f-5926-3a5c-4c64-5428df877b08"/>
            </performer>
            <valueQuantity>
               <value value="1.43"/>
               <unit value="% w/w"/>
               <system value="http://unitsofmeasure.org"/>
               <code value="%"/>
            </valueQuantity>
            <component>
               <code>
                  <coding>
                     <system value="http://hl7.org/fhir/uv/pharm-quality/CodeSystem/cs-local-codes-drug-pq-example"/>
                     <code value="SOLV"/>
                     <display value="Solvent"/>
                  </coding>
               </code>
               <valueCodeableConcept>
                  <text value="Solvent 2"/>
               </valueCodeableConcept>
            </component>
         </Observation>
      </resource>
   </entry>
   <entry>
      <fullUrl value="urn:uuid:c2644a86-1684-286e-00e2-dcaf907a8970"/>
      <resource>
         <Observation>
            <id value="observationWater"/>
            <instantiatesReference>
               <reference value="ObservationDefinition/Water"/>
            </instantiatesReference>
            <status value="final"/>
            <code>
               <coding>
                  <system value="http://hl7.org/fhir/uv/pharm-quality/CodeSystem/cs-local-codes-drug-pq-example"/>
                  <code value="WaterContent"/>
                  <display value="Water Content"/>
               </coding>
               <text value="Water Content"/>
            </code>
            <subject>
               <reference value="Substance/substance-dxpq-ex1"/>
            </subject>
            <effectiveDateTime value="2023-01-01T12:00:00Z"/>
            <performer>
               <reference value="Organization/378fbe5f-5926-3a5c-4c64-5428df877b08"/>
            </performer>
            <valueQuantity>
               <value value="0.8"/>
               <unit value="% w/w"/>
               <system value="http://unitsofmeasure.org"/>
               <code value="%"/>
            </valueQuantity>
         </Observation>
      </resource>
   </entry>
   <entry>
      <fullUrl value="urn:uuid:cb5f6872-6eeb-727a-7c33-f2c438581a1c"/>
      <resource>
         <Observation>
            <id value="observationWater2"/>
            <instantiatesReference>
               <reference value="ObservationDefinition/Water"/>
            </instantiatesReference>
            <status value="final"/>
            <code>
               <coding>
                  <system value="http://hl7.org/fhir/uv/pharm-quality/CodeSystem/cs-local-codes-drug-pq-example"/>
                  <code value="WaterContent"/>
                  <display value="Water Content"/>
               </coding>
               <text value="Water Content"/>
            </code>
            <subject>
               <reference value="Substance/substance-dxpq-ex1"/>
            </subject>
            <effectiveDateTime value="2023-01-01T12:00:00Z"/>
            <performer>
               <reference value="Organization/378fbe5f-5926-3a5c-4c64-5428df877b08"/>
            </performer>
            <valueQuantity>
               <value value="0.8"/>
               <unit value="% w/w"/>
               <system value="http://unitsofmeasure.org"/>
               <code value="%"/>
            </valueQuantity>
         </Observation>
      </resource>
   </entry>
   <entry>
      <fullUrl value="urn:uuid:7faaf980-7c10-7b9a-9572-1bacd485824e"/>
      <resource>
         <Observation>
            <id value="observationWater3"/>
            <instantiatesReference>
               <reference value="ObservationDefinition/Water"/>
            </instantiatesReference>
            <status value="final"/>
            <code>
               <coding>
                  <system value="http://hl7.org/fhir/uv/pharm-quality/CodeSystem/cs-local-codes-drug-pq-example"/>
                  <code value="WaterContent"/>
                  <display value="Water Content"/>
               </coding>
               <text value="Water Content"/>
            </code>
            <subject>
               <reference value="Substance/substance-dxpq-ex1"/>
            </subject>
            <effectiveDateTime value="2023-01-01T12:00:00Z"/>
            <performer>
               <reference value="Organization/378fbe5f-5926-3a5c-4c64-5428df877b08"/>
            </performer>
            <valueQuantity>
               <value value="0.8"/>
               <unit value="% w/w"/>
               <system value="http://unitsofmeasure.org"/>
               <code value="%"/>
            </valueQuantity>
         </Observation>
      </resource>
   </entry>
   <entry>
      <fullUrl value="urn:uuid:c2644a86-1685-286e-00e2-dcaf907a8970"/>
      <resource>
         <Observation>
            <id value="observationWaterSecond"/>
            <instantiatesReference>
               <reference value="ObservationDefinition/Water"/>
            </instantiatesReference>
            <status value="final"/>
            <code>
               <coding>
                  <system value="http://hl7.org/fhir/uv/pharm-quality/CodeSystem/cs-local-codes-drug-pq-example"/>
                  <code value="WaterContent"/>
                  <display value="Water Content"/>
               </coding>
               <text value="Water Content"/>
            </code>
            <subject>
               <reference value="Substance/actual-batch-substance-2"/>
            </subject>
            <effectiveDateTime value="2023-01-01T12:00:00Z"/>
            <performer>
               <reference value="Organization/378fbe5f-5926-3a5c-4c64-5428df877b08"/>
            </performer>
            <valueQuantity>
               <value value="0.79"/>
               <unit value="% w/w"/>
               <system value="http://unitsofmeasure.org"/>
               <code value="%"/>
            </valueQuantity>
         </Observation>
      </resource>
   </entry>
</Bundle>