<?xml version="1.0" encoding="UTF-8"?><!-- Substance Stability Study -->
<Bundle xmlns="http://hl7.org/fhir">
   <id value="bundle-drug-stability-pq-ex2-sub"/>
   <meta>
      <profile value="http://hl7.org/fhir/uv/pharm-quality/StructureDefinition/Bundle-drug-stability-pq"/>
   </meta>
   <type value="collection"/>
   <!-- Section 11 - Stability Study - Results -->
   <entry>
      <fullUrl value="urn:uuid:54c8e8dc-9a19-0dc2-910e-d5a05d6ba003"/>
      <resource>
         <DiagnosticReport>
            <id value="studyResultsReport"/>
            <extension url="http://hl7.org/fhir/StructureDefinition/workflow-triggeredBy">
               <valueReference>
                  <reference value="PlanDefinition/stabilityStudyProtocol"/>
               </valueReference>
            </extension>
            <extension url="http://hl7.org/fhir/uv/pharm-quality/StructureDefinition/Extension-statistical-model-pq">
               <valueCodeableConcept>
                        <!-- Want to use studyDesign, but problem is that this is CodeableConcept, which allows text. However when you use text, you then 
                            have no place to put a context. Ideally this would be a code/code pair. 
                            Code says "statistical model", code (or text) then says what it is -->
                  <text value="information about statistical model utilized to interpret stability study results"/>
               </valueCodeableConcept>
            </extension>
            <extension url="http://hl7.org/fhir/uv/pharm-quality/StructureDefinition/Extension-container-orientation-pq">
               <valueCodeableConcept>
                  <coding>
                     <system value="http://terminology.hl7.org/CodeSystem/container-orientation"/>
                     <code value="horizontal"/>
                     <display value="horizontal"/>
                  </coding>
                  <text value="Horizontal"/>
               </valueCodeableConcept>
            </extension>
            <identifier>
               <system value="https://eudract.europa.eu/example/identifier"/>
               <value value="PLO555"/>
            </identifier>
            <status value="final"/>
            <code>
               <coding>
                  <system value="http://terminology.hl7.org/CodeSystem/pharmaceutical-report-type"/>
                  <code value="Stability Study Report"/>
                  <display value="Stability Study Report"/>
               </coding>
            </code>
            <effectiveDateTime value="2019-09-08">
               <extension url="http://hl7.org/fhir/uv/pharm-quality/StructureDefinition/Extension-time-point-description-pq">
                  <valueCodeableConcept>
                     <coding>
                        <system value="http://terminology.hl7.org/CodeSystem/time-point-description"/>
                        <code value="Delayed Start Code"/>
                        <display value="Delayed Start Code"/>
                     </coding>
                     <text value="Refrigerated delayed testing"/>
                  </valueCodeableConcept>
               </extension>
            </effectiveDateTime>
            <performer>
               <reference value="Organization/tester"/>
            </performer>
            <result>
               <reference value="Observation/LongTerm30C-initial-1"/>
            </result>
            <result>
               <reference value="Observation/LongTerm30C-Initial-2"/>
            </result>
            <result>
               <reference value="Observation/LongTerm30C-Initial-3"/>
            </result>
            <result>
               <reference value="Observation/LongTerm30C-18m"/>
            </result>
            <result>
               <reference value="Observation/LongTerm30C-18m-2"/>
            </result>
            <result>
               <reference value="Observation/LongTerm30C-18m-3"/>
            </result>
            <result>
               <reference value="Observation/Accelerated40C-3m"/>
            </result>
            <conclusion value="The samples have been assessed and the conclusion is..."/>
         </DiagnosticReport>
      </resource>
   </entry>
   <entry>
      <fullUrl value="urn:uuid:c3973835-10ca-0796-0a26-aa8afafc9c5b"/>
      <resource>
            
            <!-- Section 11 - Stability Study - Protocol -->
         <PlanDefinition>
            <id value="stabilityStudyProtocol"/>
            <url value="http://example-server.com/fhir/PlanDefinition/c3973835-10ca-0796-0a26-aa8afafc9c5b"/>
            <title value="Stability Monitoring Program"/>
            <!--            Added type (8/22/2023)-->
            <type>
               <coding>
                  <system value="http://terminology.hl7.org/CodeSystem/pharmaceutical-plan-type"/>
                  <code value="1244588"/>
                  <display value="Stability Study Protocol"/>
               </coding>
            </type>
            <status value="active"/>
            <subjectReference>
               <reference value="SubstanceDefinition/substance1"/>
            </subjectReference>
            <!-- unclear if want subject here, because it may apply to different ones -->
            <!--subjectCanonical value="MedicinalProductDefinition/product"/-->
            <!-- this isn't followed at the moment, if it isnt in the file -->
            <description value="Description of the study study plan which includes tests, time points, storage conditions, method"/>
            <action>
               <title value="Stability Test Protocol for Long-term and Accelerated Storage of Stelbatolol"/>
               <action>
                  <title value="Long-Term"/>
                  <description value="30°C/65% RH"/>
                  <action> <!-- 0 months -->
                     <title value="Initial"/>
                     <timingTiming>
                        <repeat>
                           <boundsRange>
                              <low>
                                 <value value="0"/>
                                 <unit value="months"/>
                                 <system value="http://unitsofmeasure.org"/>
                                 <code value="mo"/>
                              </low>
                              <high>
                                 <value value="0"/>
                                 <unit value="months"/>
                                 <system value="http://unitsofmeasure.org"/>
                                 <code value="mo"/>
                              </high>
                           </boundsRange>
                           <frequency value="1"/>
                        </repeat>
                     </timingTiming>
                     <action> <!-- the categories to do at this step -->
                        <title value="XY"/>
                        <!-- Long term -->
                        <!--<definitionCanonical value="ActivityDefinition/activityLongTerm30XY-Initial"/>-->
                        <definitionCanonical value="http://example-server.com/fhir/ActivityDefinition/10d7b693-7a0e-2f71-9a10-642e5a0a5d42"/>
                     </action>
                  </action>
                  <action> <!-- 3 months -->
                     <title value="3"/>
                     <timingTiming>
                        <repeat>
                           <boundsRange>
                              <low>
                                 <value value="3"/>
                                 <unit value="months"/>
                                 <system value="http://unitsofmeasure.org"/>
                                 <code value="mo"/>
                              </low>
                              <high>
                                 <value value="3"/>
                                 <unit value="months"/>
                                 <system value="http://unitsofmeasure.org"/>
                                 <code value="mo"/>
                              </high>
                           </boundsRange>
                           <frequency value="1"/>
                        </repeat>
                     </timingTiming>
                     <action>
                        <title value="X"/>
                        <!--<definitionCanonical value="ActivityDefinition/activityLongTerm30X-3"/>-->
                        <definitionCanonical value="http://example-server.com/fhir/ActivityDefinition/480a61f8-14b3-233e-8e5f-7f0db9696a1e"/>
                     </action>
                  </action>
                  <action> <!-- 6 months -->
                     <title value="6"/>
                     <timingTiming>
                        <repeat>
                           <boundsRange>
                              <low>
                                 <value value="6"/>
                                 <unit value="months"/>
                                 <system value="http://unitsofmeasure.org"/>
                                 <code value="mo"/>
                              </low>
                              <high>
                                 <value value="6"/>
                                 <unit value="months"/>
                                 <system value="http://unitsofmeasure.org"/>
                                 <code value="mo"/>
                              </high>
                           </boundsRange>
                           <frequency value="1"/>
                        </repeat>
                     </timingTiming>
                     <action>
                        <title value="X"/>
                        <!--<definitionCanonical value="ActivityDefinition/activityLongTerm30X-6"/>-->
                        <definitionCanonical value="http://example-server.com/fhir/ActivityDefinition/bee486c4-6ab5-6293-4114-d4be24f303d3"/>
                     </action>
                  </action>
                  <action> <!-- 9 months -->
                     <title value="9"/>
                     <timingTiming>
                        <repeat>
                           <boundsRange>
                              <low>
                                 <value value="9"/>
                                 <unit value="months"/>
                                 <system value="http://unitsofmeasure.org"/>
                                 <code value="mo"/>
                              </low>
                              <high>
                                 <value value="9"/>
                                 <unit value="months"/>
                                 <system value="http://unitsofmeasure.org"/>
                                 <code value="mo"/>
                              </high>
                           </boundsRange>
                           <frequency value="1"/>
                        </repeat>
                     </timingTiming>
                     <action>
                        <title value="X"/>
                        <!--<definitionCanonical value="ActivityDefinition/activityLongTerm30X-9"/>-->
                        <definitionCanonical value="http://example-server.com/fhir/ActivityDefinition/99893d3c-520c-8d7b-6d73-f46b1a662201"/>
                     </action>
                  </action>
                  <action> <!-- 12 months -->
                     <title value="12"/>
                     <timingTiming>
                        <repeat>
                           <boundsRange>
                              <low>
                                 <value value="12"/>
                                 <unit value="months"/>
                                 <system value="http://unitsofmeasure.org"/>
                                 <code value="mo"/>
                              </low>
                              <high>
                                 <value value="12"/>
                                 <unit value="months"/>
                                 <system value="http://unitsofmeasure.org"/>
                                 <code value="mo"/>
                              </high>
                           </boundsRange>
                           <frequency value="1"/>
                        </repeat>
                     </timingTiming>
                     <action>
                        <title value="X"/>
                        <!--<definitionCanonical value="ActivityDefinition/activityLongTerm30X-12"/>-->
                        <definitionCanonical value="http://example-server.com/fhir/ActivityDefinition/b3254b8e-6fc3-88d3-7d38-0afcf13c4f67"/>
                     </action>
                  </action>
                  <action> <!-- 18 months -->
                     <title value="18"/>
                     <timingTiming>
                        <repeat>
                           <boundsRange>
                              <low>
                                 <value value="18"/>
                                 <unit value="months"/>
                                 <system value="http://unitsofmeasure.org"/>
                                 <code value="mo"/>
                              </low>
                              <high>
                                 <value value="18"/>
                                 <unit value="months"/>
                                 <system value="http://unitsofmeasure.org"/>
                                 <code value="mo"/>
                              </high>
                           </boundsRange>
                           <frequency value="1"/>
                        </repeat>
                     </timingTiming>
                     <action>
                        <title value="X"/>
                        <!--<definitionCanonical value="ActivityDefinition/activityLongTerm30X-18"/>-->
                        <definitionCanonical value="http://example-server.com/fhir/ActivityDefinition/c9b53a46-2f61-7b3f-5780-5f5c79a47f12"/>
                     </action>
                  </action>
                  <action> <!-- 24 months -->
                     <title value="24"/>
                     <timingTiming>
                        <repeat>
                           <boundsRange>
                              <low>
                                 <value value="24"/>
                                 <unit value="months"/>
                                 <system value="http://unitsofmeasure.org"/>
                                 <code value="mo"/>
                              </low>
                              <high>
                                 <value value="24"/>
                                 <unit value="months"/>
                                 <system value="http://unitsofmeasure.org"/>
                                 <code value="mo"/>
                              </high>
                           </boundsRange>
                           <frequency value="1"/>
                        </repeat>
                     </timingTiming>
                     <action>
                        <title value="X"/>
                        <!--<definitionCanonical value="ActivityDefinition/activityLongTerm30X-24"/>-->
                        <definitionCanonical value="http://example-server.com/fhir/ActivityDefinition/d6f7de9d-57a5-6a2c-1c2f-0d65718860f2"/>
                     </action>
                  </action>
                  <!-- 36 months -->
                  <action>
                     <title value="36"/>
                     <timingTiming>
                        <repeat>
                           <boundsRange>
                              <low>
                                 <value value="36"/>
                                 <unit value="months"/>
                                 <system value="http://unitsofmeasure.org"/>
                                 <code value="mo"/>
                              </low>
                              <high>
                                 <value value="36"/>
                                 <unit value="months"/>
                                 <system value="http://unitsofmeasure.org"/>
                                 <code value="mo"/>
                              </high>
                           </boundsRange>
                           <frequency value="1"/>
                        </repeat>
                     </timingTiming>
                     <action>
                        <title value="(X)"/>
                        <requiredBehavior value="could"/>
                        <!--<definitionCanonical value="ActivityDefinition/activityLongTerm30X-36"/>-->
                        <definitionCanonical value="http://example-server.com/fhir/ActivityDefinition/75073965-82eb-407d-34cf-3a7767a38149"/>
                     </action>
                  </action>
               </action>
               <!-- end of long term -->
               <action>
                  <title value="Accelerated"/>
                  <description value="40°C/75% RH"/>
                  <action> <!-- 0 months -->
                     <title value="Initial"/>
                     <timingTiming>
                        <repeat>
                           <boundsRange>
                              <low>
                                 <value value="0"/>
                                 <unit value="months"/>
                                 <system value="http://unitsofmeasure.org"/>
                                 <code value="mo"/>
                              </low>
                              <high>
                                 <value value="0"/>
                                 <unit value="months"/>
                                 <system value="http://unitsofmeasure.org"/>
                                 <code value="mo"/>
                              </high>
                           </boundsRange>
                           <frequency value="1"/>
                        </repeat>
                     </timingTiming>
                     <action> <!-- second category at this step -->
                        <title value="XY"/>
                        <!--                                <definitionCanonical value="ActivityDefinition/activityAccelerated40XY-Initial"/>-->
                        <definitionCanonical value="http://example-server.com/fhir/ActivityDefinition/1b43a536-3c29-3427-0b93-e35866ef8495"/>
                     </action>
                  </action>
                  <action> <!-- 3 months -->
                     <title value="3"/>
                     <timingTiming>
                        <repeat>
                           <boundsRange>
                              <low>
                                 <value value="3"/>
                                 <unit value="months"/>
                                 <system value="http://unitsofmeasure.org"/>
                                 <code value="mo"/>
                              </low>
                              <high>
                                 <value value="3"/>
                                 <unit value="months"/>
                                 <system value="http://unitsofmeasure.org"/>
                                 <code value="mo"/>
                              </high>
                           </boundsRange>
                           <frequency value="1"/>
                        </repeat>
                     </timingTiming>
                     <action>
                        <title value="X"/>
                        <!--                                <definitionCanonical value="ActivityDefinition/activityAccelerated40X-3"/>-->
                        <definitionCanonical value="http://example-server.com/fhir/ActivityDefinition/8a453cd8-1ac3-4c86-48c3-3e5ea9ee76a9"/>
                     </action>
                  </action>
                  <action> <!-- 6 months -->
                     <title value="6"/>
                     <timingTiming>
                        <repeat>
                           <boundsRange>
                              <low>
                                 <value value="6"/>
                                 <unit value="months"/>
                                 <system value="http://unitsofmeasure.org"/>
                                 <code value="mo"/>
                              </low>
                              <high>
                                 <value value="6"/>
                                 <unit value="months"/>
                                 <system value="http://unitsofmeasure.org"/>
                                 <code value="mo"/>
                              </high>
                           </boundsRange>
                           <frequency value="1"/>
                        </repeat>
                     </timingTiming>
                     <action>
                        <title value="X"/>
                        <!--<definitionCanonical value="ActivityDefinition/activityAccelerated40X-6"/>-->
                        <definitionCanonical value="http://example-server.com/fhir/ActivityDefinition/cf2f00df-971f-0bab-8768-4251b1ad0817"/>
                     </action>
                  </action>
                  <action> <!-- 9 months -->
                     <title value="9"/>
                     <timingTiming>
                        <repeat>
                           <boundsRange>
                              <low>
                                 <value value="9"/>
                                 <unit value="months"/>
                                 <system value="http://unitsofmeasure.org"/>
                                 <code value="mo"/>
                              </low>
                              <high>
                                 <value value="9"/>
                                 <unit value="months"/>
                                 <system value="http://unitsofmeasure.org"/>
                                 <code value="mo"/>
                              </high>
                           </boundsRange>
                           <frequency value="1"/>
                        </repeat>
                     </timingTiming>
                     <action> <!-- none -->
                        <title value="-"/>
                     </action>
                  </action>
                  <action> <!-- 12 months -->
                     <title value="12"/>
                     <timingTiming>
                        <repeat>
                           <boundsRange>
                              <low>
                                 <value value="12"/>
                                 <unit value="months"/>
                                 <system value="http://unitsofmeasure.org"/>
                                 <code value="mo"/>
                              </low>
                              <high>
                                 <value value="12"/>
                                 <unit value="months"/>
                                 <system value="http://unitsofmeasure.org"/>
                                 <code value="mo"/>
                              </high>
                           </boundsRange>
                           <frequency value="1"/>
                        </repeat>
                     </timingTiming>
                     <action>
                                <!-- none -->
                        <title value="-"/>
                     </action>
                  </action>
                  <action> <!-- 18 months -->
                     <title value="18"/>
                     <timingTiming>
                        <repeat>
                           <boundsRange>
                              <low>
                                 <value value="18"/>
                                 <unit value="months"/>
                                 <system value="http://unitsofmeasure.org"/>
                                 <code value="mo"/>
                              </low>
                              <high>
                                 <value value="18"/>
                                 <unit value="months"/>
                                 <system value="http://unitsofmeasure.org"/>
                                 <code value="mo"/>
                              </high>
                           </boundsRange>
                           <frequency value="1"/>
                        </repeat>
                     </timingTiming>
                     <action>
                                <!-- none -->
                        <title value="-"/>
                     </action>
                  </action>
                  <action> <!-- 24 months -->
                     <title value="24"/>
                     <timingTiming>
                        <repeat>
                           <boundsRange>
                              <low>
                                 <value value="24"/>
                                 <unit value="months"/>
                                 <system value="http://unitsofmeasure.org"/>
                                 <code value="mo"/>
                              </low>
                              <high>
                                 <value value="24"/>
                                 <unit value="months"/>
                                 <system value="http://unitsofmeasure.org"/>
                                 <code value="mo"/>
                              </high>
                           </boundsRange>
                           <frequency value="1"/>
                        </repeat>
                     </timingTiming>
                     <action>
                                <!-- none -->
                        <title value="-"/>
                     </action>
                  </action>
                  <!-- 36 months -->
                  <action>
                     <title value="36"/>
                     <timingTiming>
                        <repeat>
                           <boundsRange>
                              <low>
                                 <value value="36"/>
                                 <unit value="months"/>
                                 <system value="http://unitsofmeasure.org"/>
                                 <code value="mo"/>
                              </low>
                              <high>
                                 <value value="36"/>
                                 <unit value="months"/>
                                 <system value="http://unitsofmeasure.org"/>
                                 <code value="mo"/>
                              </high>
                           </boundsRange>
                           <frequency value="1"/>
                        </repeat>
                     </timingTiming>
                     <action>
                        <title value="-"/>
                     </action>
                  </action>
               </action>
               <!-- end of accelerated -->
            </action>
         </PlanDefinition>
      </resource>
   </entry>
   <!-- Long term tests -->
   <entry>
      <fullUrl value="urn:uuid:643d8b44-71f4-2b58-07e8-51c22b294b25"/>
      <resource>
         <SpecimenDefinition>
            <id value="specimenDefStoredAt30"/>
            <meta>
               <profile value="http://hl7.org/fhir/uv/pharm-quality/StructureDefinition/SpecimenDefinition-drug-pq"/>
            </meta>
            <url value="http://example-server.com/fhir/SpecimenDefinition/643d8b44-71f4-2b58-07e8-51c22b294b25"/>
            <status value="active"/>
            <typeTested>
               <preference value="preferred"/>
               <handling>
                  <instruction value="30°C/65% RH"/>
                  <!-- easier than temp range? which doesnt have humidity -->
               </handling>
            </typeTested>
         </SpecimenDefinition>
      </resource>
   </entry>
   <entry>
      <fullUrl value="urn:uuid:10d7b693-7a0e-2f71-9a10-642e5a0a5d42"/>
      <resource>
         <ActivityDefinition>
            <id value="activityLongTerm30XY-Initial"/>
            <url value="http://example-server.com/fhir/ActivityDefinition/10d7b693-7a0e-2f71-9a10-642e5a0a5d42"/>
            <title value="Long-term - 30°C/65% RH - XY"/>
            <status value="active"/>
            <observationRequirement value="ObservationDefinition/longTerm30X"/>
            <observationRequirement value="ObservationDefinition/longTerm30Y"/>
         </ActivityDefinition>
      </resource>
   </entry>
   <entry>
      <fullUrl value="urn:uuid:480a61f8-14b3-233e-8e5f-7f0db9696a1e"/>
      <resource>
         <ActivityDefinition>
            <id value="activityLongTerm30X-3"/>
            <url value="http://example-server.com/fhir/ActivityDefinition/480a61f8-14b3-233e-8e5f-7f0db9696a1e"/>
            <title value="Long-term - 30°C/65% RH - X"/>
            <status value="active"/>
            <observationRequirement value="ObservationDefinition/longTerm30X"/>
         </ActivityDefinition>
      </resource>
   </entry>
   <entry>
      <fullUrl value="urn:uuid:bee486c4-6ab5-6293-4114-d4be24f303d3"/>
      <resource>
         <ActivityDefinition>
            <id value="activityLongTerm30X-6"/>
            <url value="http://example-server.com/fhir/ActivityDefinition/bee486c4-6ab5-6293-4114-d4be24f303d3"/>
            <title value="Long-term - 30°C/65% RH - X"/>
            <status value="active"/>
            <observationRequirement value="ObservationDefinition/longTerm30X"/>
         </ActivityDefinition>
      </resource>
   </entry>
   <entry>
      <fullUrl value="urn:uuid:99893d3c-520c-8d7b-6d73-f46b1a662201"/>
      <resource>
         <ActivityDefinition>
            <id value="activityLongTerm30X-9"/>
            <url value="http://example-server.com/fhir/ActivityDefinition/99893d3c-520c-8d7b-6d73-f46b1a662201"/>
            <title value="Long-term - 30°C/65% RH - X"/>
            <status value="active"/>
            <observationRequirement value="ObservationDefinition/longTerm30X"/>
         </ActivityDefinition>
      </resource>
   </entry>
   <entry>
      <fullUrl value="urn:uuid:b3254b8e-6fc3-88d3-7d38-0afcf13c4f67"/>
      <resource>
         <ActivityDefinition>
            <id value="activityLongTerm30X-12"/>
            <url value="http://example-server.com/fhir/ActivityDefinition/b3254b8e-6fc3-88d3-7d38-0afcf13c4f67"/>
            <title value="Long-term - 30°C/65% RH - X"/>
            <status value="active"/>
            <observationRequirement value="ObservationDefinition/longTerm30X"/>
         </ActivityDefinition>
      </resource>
   </entry>
   <entry>
      <fullUrl value="urn:uuid:c9b53a46-2f61-7b3f-5780-5f5c79a47f12"/>
      <resource>
         <ActivityDefinition>
            <id value="activityLongTerm30X-18"/>
            <url value="http://example-server.com/fhir/ActivityDefinition/c9b53a46-2f61-7b3f-5780-5f5c79a47f12"/>
            <title value="Long-term - 30°C/65% RH - X"/>
            <status value="active"/>
            <observationRequirement value="ObservationDefinition/longTerm30X"/>
         </ActivityDefinition>
      </resource>
   </entry>
   <entry>
      <fullUrl value="urn:uuid:d6f7de9d-57a5-6a2c-1c2f-0d65718860f2"/>
      <resource>
         <ActivityDefinition>
            <id value="activityLongTerm30X-24"/>
            <url value="http://example-server.com/fhir/ActivityDefinition/d6f7de9d-57a5-6a2c-1c2f-0d65718860f2"/>
            <title value="Long-term - 30°C/65% RH - X"/>
            <status value="active"/>
            <observationRequirement value="ObservationDefinition/longTerm30X"/>
         </ActivityDefinition>
      </resource>
   </entry>
   <entry>
      <fullUrl value="urn:uuid:75073965-82eb-407d-34cf-3a7767a38149"/>
      <resource>
         <ActivityDefinition>
            <id value="activityLongTerm30X-36"/>
            <url value="http://example-server.com/fhir/ActivityDefinition/75073965-82eb-407d-34cf-3a7767a38149"/>
            <title value="Long-term - 30°C/65% RH - X"/>
            <status value="active"/>
            <observationRequirement value="ObservationDefinition/longTerm30X"/>
         </ActivityDefinition>
      </resource>
   </entry>
   <entry>
      <fullUrl value="urn:uuid:18762cff-9e29-6e71-1184-e9202fee8cba"/>
      <resource>
         <ObservationDefinition>
            <id value="longTerm30X"/>
            <meta>
               <profile value="http://hl7.org/fhir/uv/pharm-quality/StructureDefinition/ObservationDefinition-test-method-drug-pq"/>
            </meta>
            <url value="http://example-server.com/fhir/ObservationDefinition/18762cff-9e29-6e71-1184-e9202fee8cba"/>
            <title value="X"/>
            <status value="active"/>
            <code>
               <text value="Battery of tests 'X' at 30°C/65% RH"/>
            </code>
            <specimen>
               <reference value="SpecimenDefinition/specimenDefStoredAt30"/>
            </specimen>
            <hasMember>
               <reference value="ObservationDefinition/Description"/>
            </hasMember>
            <hasMember>
               <reference value="ObservationDefinition/Assay"/>
            </hasMember>
            <hasMember>
               <reference value="ObservationDefinition/Impurities"/>
            </hasMember>
            <!-- can have others -->
         </ObservationDefinition>
      </resource>
   </entry>
   <entry>
      <fullUrl value="urn:uuid:559ffdc3-349b-a4a3-a651-ce2715f08d69"/>
      <resource>
         <ObservationDefinition>
            <id value="Description"/>
            <url value="http://example-server.com/fhir/ObservationDefinition/559ffdc3-349b-a4a3-a651-ce2715f08d69"/>
            <title value="Description"/>
            <status value="active"/>
            <code>
               <coding>
                  <system value="http://hl7.org/fhir/uv/pharm-quality/CodeSystem/cs-local-codes-drug-pq-example"/>
                  <code value="DESC"/>
                  <display value="Description"/>
               </coding>
               <text value="Description"/>
            </code>
            <qualifiedValue>
               <extension url="http://hl7.org/fhir/uv/pharm-quality/StructureDefinition/Extension-qualified-value-text-pq">
                  <valueString value="A white to brown powder"/>
               </extension>
            </qualifiedValue>
         </ObservationDefinition>
      </resource>
   </entry>
   <entry>
      <fullUrl value="urn:uuid:7943795a-2abe-666f-545f-133e23b97119"/>
      <resource>
         <ObservationDefinition>
            <id value="Assay"/>
            <url value="http://example-server.com/fhir/ObservationDefinition/7943795a-2abe-666f-545f-133e23b97119"/>
            <title value="Assay (% w/w) (Mean)"/>
            <status value="active"/>
            <code>
               <coding>
                  <system value="http://hl7.org/fhir/uv/pharm-quality/CodeSystem/cs-local-codes-drug-pq-example"/>
                  <code value="ASSAY"/>
                  <display value="Assay"/>
               </coding>
               <text value="Assay (% w/w) (Mean)"/>
            </code>
            <qualifiedValue>
               <range>
                  <low>
                     <value value="98"/>
                     <unit value="% w/w"/>
                     <system value="http://unitsofmeasure.org"/>
                     <code value="%"/>
                  </low>
                  <high>
                     <value value="102"/>
                     <unit value="% w/w"/>
                     <system value="http://unitsofmeasure.org"/>
                     <code value="%"/>
                  </high>
               </range>
            </qualifiedValue>
         </ObservationDefinition>
      </resource>
   </entry>
   <entry>
      <fullUrl value="urn:uuid:73d9d304-a0b8-31b6-1165-346563b9305e"/>
      <resource>
         <ObservationDefinition>
            <id value="Impurities"/>
            <url value="http://example-server.com/fhir/ObservationDefinition/73d9d304-a0b8-31b6-1165-346563b9305e"/>
            <title value="Drug-related Impurities Content by LC (% w/w)"/>
            <status value="active"/>
            <code>
               <coding>
                  <system value="http://hl7.org/fhir/uv/pharm-quality/CodeSystem/cs-local-codes-drug-pq-example"/>
                  <code value="Impurities"/>
                  <display value="Impurities"/>
               </coding>
            </code>
            <qualifiedValue>
               <appliesTo> <!-- could be a code -->
                  <text value="Impurity"/>
               </appliesTo>
               <range>
                  <high>
                     <value value="0.5"/>
                     <unit value="% w/w"/>
                     <system value="http://unitsofmeasure.org"/>
                     <code value="%"/>
                  </high>
               </range>
            </qualifiedValue>
            <qualifiedValue>
               <appliesTo>
                  <text value="Impurity 2"/>
               </appliesTo>
               <range>
                  <high>
                     <value value="0.52"/>
                     <unit value="% w/w"/>
                     <system value="http://unitsofmeasure.org"/>
                     <code value="%"/>
                  </high>
               </range>
            </qualifiedValue>
            <qualifiedValue>
               <appliesTo>
                  <text value="Any Unspecified Impurity"/>
               </appliesTo>
               <range>
                  <high>
                     <value value="0.10"/>
                     <unit value="% w/w"/>
                     <system value="http://unitsofmeasure.org"/>
                     <code value="%"/>
                  </high>
               </range>
            </qualifiedValue>
            <qualifiedValue>
               <appliesTo>
                  <text value="Total Impurities"/>
               </appliesTo>
               <range>
                  <high>
                     <value value="2.0"/>
                     <unit value="% w/w"/>
                     <system value="http://unitsofmeasure.org"/>
                     <code value="%"/>
                  </high>
               </range>
            </qualifiedValue>
            <component> <!-- are expected to have a component that says what impurity this one is -->
               <code>
                  <coding>
                     <system value="http://hl7.org/fhir/uv/pharm-quality/CodeSystem/cs-local-codes-drug-pq-example"/>
                     <code value="IMP"/>
                     <display value="Impurity"/>
                  </coding>
               </code>
            </component>
         </ObservationDefinition>
      </resource>
   </entry>
   <entry>
      <fullUrl value="urn:uuid:31abea79-81da-17f8-9d8c-94e9bb75876e"/>
      <resource>
         <ObservationDefinition>
            <id value="longTerm30Y"/>
            <meta>
               <profile value="http://hl7.org/fhir/uv/pharm-quality/StructureDefinition/ObservationDefinition-test-method-drug-pq"/>
            </meta>
            <url value="http://example-server.com/fhir/ObservationDefinition/31abea79-81da-17f8-9d8c-94e9bb75876e"/>
            <title value="Y"/>
            <status value="active"/>
            <code>
               <text value="Battery of tests 'Y' at 30°C/65% RH"/>
            </code>
            <specimen>
               <reference value="SpecimenDefinition/specimenDefStoredAt30"/>
            </specimen>
            <hasMember>
               <reference value="ObservationDefinition/Identification"/>
            </hasMember>
            <!-- can have others -->
         </ObservationDefinition>
      </resource>
   </entry>
   <entry>
      <fullUrl value="urn:uuid:6b96124b-1a44-0b6b-6783-d6c49360230b"/>
      <resource>
         <ObservationDefinition>
            <id value="Identification"/>
            <url value="http://example-server.com/fhir/ObservationDefinition/6b96124b-1a44-0b6b-6783-d6c49360230b"/>
            <title value="Identification"/>
            <status value="active"/>
            <code>
               <coding>
                  <system value="http://hl7.org/fhir/uv/pharm-quality/CodeSystem/cs-local-codes-drug-pq-example"/>
                  <code value="IDT"/>
                  <display value="Identification"/>
               </coding>
               <text value="Identification"/>
            </code>
            <qualifiedValue>
               <extension url="http://hl7.org/fhir/uv/pharm-quality/StructureDefinition/Extension-qualified-value-text-pq">
                  <valueString value="Complies"/>
               </extension>
            </qualifiedValue>
         </ObservationDefinition>
      </resource>
   </entry>
   <!-- Accelerated tests -->
   <entry>
      <fullUrl value="urn:uuid:306637ec-1041-80e8-8e77-e7ca814253e1"/>
      <resource>
         <SpecimenDefinition>
            <id value="specimenDefStoredAt40"/>
            <meta>
               <profile value="http://hl7.org/fhir/uv/pharm-quality/StructureDefinition/SpecimenDefinition-drug-pq"/>
            </meta>
            <url value="http://example-server.com/fhir/SpecimenDefinition/306637ec-1041-80e8-8e77-e7ca814253e1"/>
            <status value="active"/>
            <typeTested>
               <preference value="preferred"/>
               <handling>
                  <instruction value="40°C/75% RH"/>
               </handling>
            </typeTested>
         </SpecimenDefinition>
      </resource>
   </entry>
   <entry>
      <fullUrl value="urn:uuid:1b43a536-3c29-3427-0b93-e35866ef8495"/>
      <resource>
         <ActivityDefinition>
            <id value="activityAccelerated40XY-Initial"/>
            <url value="http://example-server.com/fhir/ActivityDefinition/1b43a536-3c29-3427-0b93-e35866ef8495"/>
            <title value="Accelerated - 40°C/70% RH - XY"/>
            <status value="active"/>
            <observationRequirement value="ObservationDefinition/accelerated40X"/>
            <observationRequirement value="ObservationDefinition/accelerated40Y"/>
         </ActivityDefinition>
      </resource>
   </entry>
   <entry>
      <fullUrl value="urn:uuid:8a453cd8-1ac3-4c86-48c3-3e5ea9ee76a9"/>
      <resource>
         <ActivityDefinition>
            <id value="activityAccelerated40X-3"/>
            <url value="http://example-server.com/fhir/ActivityDefinition/8a453cd8-1ac3-4c86-48c3-3e5ea9ee76a9"/>
            <title value="Accelerated - 40°C/70% RH - X"/>
            <status value="active"/>
            <observationRequirement value="ObservationDefinition/accelerated40X"/>
         </ActivityDefinition>
      </resource>
   </entry>
   <entry>
      <fullUrl value="urn:uuid:cf2f00df-971f-0bab-8768-4251b1ad0817"/>
      <resource>
         <ActivityDefinition>
            <id value="activityAccelerated40X-6"/>
            <url value="http://example-server.com/fhir/ActivityDefinition/cf2f00df-971f-0bab-8768-4251b1ad0817"/>
            <title value="Accelerated - 40°C/70% RH - X"/>
            <status value="active"/>
            <observationRequirement value="ObservationDefinition/accelerated40X"/>
         </ActivityDefinition>
      </resource>
   </entry>
   <entry>
      <fullUrl value="urn:uuid:35fa7b97-98d3-35d3-5672-4ab1047d57fc"/>
      <resource>
         <ObservationDefinition>
            <id value="accelerated40X"/>
            <url value="http://example-server.com/fhir/ObservationDefinition/35fa7b97-98d3-35d3-5672-4ab1047d57fc"/>
            <title value="X"/>
            <status value="active"/>
            <code>
               <text value="Battery of tests 'X' at 40°C/75% RH"/>
            </code>
            <specimen>
               <reference value="SpecimenDefinition/specimenDefStoredAt40"/>
            </specimen>
            <hasMember>
               <reference value="ObservationDefinition/Description"/>
            </hasMember>
            <hasMember>
               <reference value="ObservationDefinition/Assay"/>
            </hasMember>
            <!-- can have others -->
         </ObservationDefinition>
      </resource>
   </entry>
   <entry>
      <fullUrl value="urn:uuid:accb8802-4223-61e2-8c79-2282e22a2bb6"/>
      <resource>
         <ObservationDefinition>
            <id value="accelerated40Y"/>
            <url value="http://example-server.com/fhir/ObservationDefinition/accb8802-4223-61e2-8c79-2282e22a2bb6"/>
            <title value="Y"/>
            <status value="active"/>
            <code>
               <text value="Battery of tests 'Y' at 40°C/75% RH"/>
            </code>
            <specimen>
               <reference value="SpecimenDefinition/specimenDefStoredAt40"/>
            </specimen>
            <hasMember>
               <reference value="ObservationDefinition/Identification"/>
            </hasMember>
            <!-- can have others -->
         </ObservationDefinition>
      </resource>
   </entry>
   <!-- Section 11 - Stability Study - Results - Test Result - Long Term XY - 18M - on batch 1 -->
   <entry>
      <fullUrl value="urn:uuid:6a5354bf-602c-99f1-324b-0bb5f7e06cd5"/>
      <resource>
         <Specimen>
            <id value="stabilityInitial-1"/>
            <collection>
               <collectedDateTime value="2020-06"/>
               <!-- when sample first taken, before the timed periods start -->
            </collection>
            <processing>
               <description value="No storage"/>
            </processing>
            <processing>
               <description value="25°C/60% RH"/>
            </processing>
         </Specimen>
      </resource>
   </entry>
   <!-- Section 11 - Stability Study - Results - Test Result - Long Term XYZ - Initial - on batch 1 -->
   <entry>
      <fullUrl value="urn:uuid:588a6787-0454-55ef-0b8a-4c8941b6976c"/>
      <resource>
         <Observation>
            <id value="LongTerm30C-initial-1"/>
            <contained>
               <Observation>
                  <id value="LongTerm30C-initial-1-Description"/>
                  <instantiatesReference>
                     <reference value="ObservationDefinition/Description"/>
                  </instantiatesReference>
                  <!--<instantiatesCanonical value="http://example-server.com/fhir/ObservationDefinition/559ffdc3-349b-a4a3-a651-ce2715f08d69"/>-->
                  <status value="final"/>
                  <code>
                     <coding>
                        <system value="http://hl7.org/fhir/uv/pharm-quality/CodeSystem/cs-local-codes-drug-pq-example"/>
                        <code value="DESC"/>
                        <display value="Description"/>
                     </coding>
                     <text value="Description"/>
                  </code>
                  <subject>
                     <reference value="Substance/actual-batch-substance"/>
                  </subject>
                  <effectiveDateTime value="2023-01-01T12:00:00Z"/>
                  <performer>
                     <reference value="Organization/378fbe5f-5926-3a5c-4c64-5428df877b08"/>
                  </performer>
                  <valueCodeableConcept>
                     <text value="Complies"/>
                  </valueCodeableConcept>
               </Observation>
            </contained>
            <contained>
               <Observation>
                  <id value="LongTerm30C-initial-1-Impurity1"/>
                  <instantiatesReference>
                     <reference value="ObservationDefinition/Impurities"/>
                  </instantiatesReference>
                  <!--<instantiatesCanonical value="http://example-server.com/fhir/ObservationDefinition/73d9d304-a0b8-31b6-1165-346563b9305e"/>-->
                  <status value="final"/>
                  <code>
                     <coding>
                        <system value="http://hl7.org/fhir/uv/pharm-quality/CodeSystem/cs-local-codes-drug-pq-example"/>
                        <code value="DGP"/>
                        <display value="Degradation Products"/>
                     </coding>
                     <text value="Degradation Products"/>
                  </code>
                  <subject>
                     <reference value="Substance/actual-batch-substance"/>
                  </subject>
                  <effectiveDateTime value="2023-01-01T12:00:00Z"/>
                  <performer>
                     <reference value="Organization/378fbe5f-5926-3a5c-4c64-5428df877b08"/>
                  </performer>
                  <valueQuantity>
                     <value value="0.1"/>
                     <unit value="% w/w"/>
                     <system value="http://unitsofmeasure.org"/>
                     <code value="%"/>
                  </valueQuantity>
                  <component>
                     <code>
                        <coding>
                           <system value="http://hl7.org/fhir/uv/pharm-quality/CodeSystem/cs-local-codes-drug-pq-example"/>
                           <code value="IMP"/>
                           <display value="Impurity"/>
                        </coding>
                     </code>
                     <valueCodeableConcept>
                                <!-- could have the code of an impurity substance, or could have an extension to point to it as a resource -->
                        <text value="Impurity"/>
                     </valueCodeableConcept>
                  </component>
               </Observation>
            </contained>
            <contained>
               <Observation>
                  <id value="LongTerm30C-initial-1-Impurity2"/>
                  <instantiatesReference>
                     <reference value="ObservationDefinition/Impurities"/>
                  </instantiatesReference>
                  <!--<instantiatesCanonical value="http://example-server.com/fhir/ObservationDefinition/73d9d304-a0b8-31b6-1165-346563b9305e"/>-->
                  <status value="final"/>
                  <code>
                     <coding>
                        <system value="http://hl7.org/fhir/uv/pharm-quality/CodeSystem/cs-local-codes-drug-pq-example"/>
                        <code value="Impurities"/>
                        <display value="Impurities"/>
                     </coding>
                     <text value="Impurities"/>
                  </code>
                  <subject>
                     <reference value="Substance/actual-batch-substance"/>
                  </subject>
                  <effectiveDateTime value="2023-01-01T12:00:00Z"/>
                  <performer>
                     <reference value="Organization/378fbe5f-5926-3a5c-4c64-5428df877b08"/>
                  </performer>
                  <valueQuantity>
                     <value value="0.2"/>
                     <unit value="% w/w"/>
                     <system value="http://unitsofmeasure.org"/>
                     <code value="%"/>
                  </valueQuantity>
                  <component>
                     <code>
                        <coding>
                           <system value="http://hl7.org/fhir/uv/pharm-quality/CodeSystem/cs-local-codes-drug-pq-example"/>
                           <code value="IMP"/>
                           <display value="Impurity"/>
                        </coding>
                     </code>
                     <valueCodeableConcept>
                        <text value="Impurity 2"/>
                     </valueCodeableConcept>
                  </component>
               </Observation>
            </contained>
            <contained>
               <Observation>
                  <id value="LongTerm30C-initial-1-ImpurityUnspecified"/>
                  <instantiatesReference>
                     <reference value="ObservationDefinition/Impurities"/>
                  </instantiatesReference>
                  <!--<instantiatesCanonical value="http://example-server.com/fhir/ObservationDefinition/73d9d304-a0b8-31b6-1165-346563b9305e"/>-->
                  <status value="final"/>
                  <code>
                     <coding>
                        <system value="http://hl7.org/fhir/uv/pharm-quality/CodeSystem/cs-local-codes-drug-pq-example"/>
                        <code value="Impurities"/>
                        <display value="Impurities"/>
                     </coding>
                     <text value="Impurities"/>
                  </code>
                  <subject>
                     <reference value="Substance/actual-batch-substance"/>
                  </subject>
                  <effectiveDateTime value="2023-01-01T12:00:00Z"/>
                  <performer>
                     <reference value="Organization/378fbe5f-5926-3a5c-4c64-5428df877b08"/>
                  </performer>
                  <valueQuantity>
                     <value value="0.05"/>
                     <comparator value="&lt;"/>
                     <unit value="% w/w"/>
                     <system value="http://unitsofmeasure.org"/>
                     <code value="%"/>
                  </valueQuantity>
                  <component>
                     <code>
                        <coding>
                           <system value="http://hl7.org/fhir/uv/pharm-quality/CodeSystem/cs-local-codes-drug-pq-example"/>
                           <code value="IMP"/>
                           <display value="Impurity"/>
                        </coding>
                     </code>
                     <valueCodeableConcept>
                        <text value="Any Unspecified Impurity"/>
                     </valueCodeableConcept>
                  </component>
               </Observation>
            </contained>
            <contained>
               <Observation>
                  <id value="LongTerm30C-initial-1-ImpurityTotal"/>
                  <instantiatesReference>
                     <reference value="ObservationDefinition/Impurities"/>
                  </instantiatesReference>
                  <!--<instantiatesCanonical value="http://example-server.com/fhir/ObservationDefinition/73d9d304-a0b8-31b6-1165-346563b9305e"/>-->
                  <status value="final"/>
                  <code>
                     <coding>
                        <system value="http://hl7.org/fhir/uv/pharm-quality/CodeSystem/cs-local-codes-drug-pq-example"/>
                        <code value="Impurities"/>
                        <display value="Impurities"/>
                     </coding>
                     <text value="Impurities"/>
                  </code>
                  <subject>
                     <reference value="Substance/actual-batch-substance"/>
                  </subject>
                  <effectiveDateTime value="2023-01-01T12:00:00Z"/>
                  <performer>
                     <reference value="Organization/378fbe5f-5926-3a5c-4c64-5428df877b08"/>
                  </performer>
                  <valueQuantity>
                     <value value="0.8"/>
                     <unit value="% w/w"/>
                     <system value="http://unitsofmeasure.org"/>
                     <code value="%"/>
                  </valueQuantity>
                  <component>
                     <code>
                        <coding>
                           <system value="http://hl7.org/fhir/uv/pharm-quality/CodeSystem/cs-local-codes-drug-pq-example"/>
                           <code value="IMP"/>
                           <display value="Impurity"/>
                        </coding>
                     </code>
                     <valueCodeableConcept>
                        <text value="Total Impurities"/>
                     </valueCodeableConcept>
                  </component>
               </Observation>
            </contained>
            <contained>
               <Observation>
                  <id value="LongTerm30C-initial-1-Assay"/>
                  <instantiatesReference>
                     <reference value="ObservationDefinition/Assay"/>
                  </instantiatesReference>
                  <!--<instantiatesCanonical value="http://example-server.com/fhir/ObservationDefinition/7943795a-2abe-666f-545f-133e23b97119"/>-->
                  <status value="final"/>
                  <code>
                     <coding>
                        <system value="http://hl7.org/fhir/uv/pharm-quality/CodeSystem/cs-local-codes-drug-pq-example"/>
                        <code value="ASSAY"/>
                        <display value="Assay"/>
                     </coding>
                  </code>
                  <subject>
                     <reference value="Substance/actual-batch-substance"/>
                  </subject>
                  <effectiveDateTime value="2023-01-01T12:00:00Z"/>
                  <performer>
                     <reference value="Organization/378fbe5f-5926-3a5c-4c64-5428df877b08"/>
                  </performer>
                  <valueQuantity>
                     <value value="0.15"/>
                     <unit value="% w/w"/>
                     <system value="http://unitsofmeasure.org"/>
                     <code value="%"/>
                  </valueQuantity>
               </Observation>
            </contained>
            <contained>
               <Observation>
                  <id value="LongTerm30C-initial-1-Identification"/>
                  <instantiatesReference>
                     <reference value="ObservationDefinition/Identification"/>
                  </instantiatesReference>
                  <!--<instantiatesCanonical value="http://example-server.com/fhir/ObservationDefinition/6b96124b-1a44-0b6b-6783-d6c49360230b"/>-->
                  <status value="final"/>
                  <code>
                     <coding>
                        <system value="http://hl7.org/fhir/uv/pharm-quality/CodeSystem/cs-local-codes-drug-pq-example"/>
                        <code value="IDT"/>
                        <display value="Identification"/>
                     </coding>
                     <text value="Identification"/>
                  </code>
                  <subject>
                     <reference value="Substance/actual-batch-substance"/>
                  </subject>
                  <effectiveDateTime value="2023-01-01T12:00:00Z"/>
                  <performer>
                     <reference value="Organization/378fbe5f-5926-3a5c-4c64-5428df877b08"/>
                  </performer>
                  <valueCodeableConcept>
                     <text value="Complies"/>
                  </valueCodeableConcept>
               </Observation>
            </contained>
            <extension url="http://hl7.org/fhir/StructureDefinition/workflow-triggeredBy">
               <valueReference>
                  <reference value="ActivityDefinition/activityLongTerm30XY-Initial"/>
               </valueReference>
            </extension>
            <status value="final"/>
            <code>
               <text value="Test Components - Long-term 25C etc - Initial (XYZ)"/>
            </code>
            <subject>
               <reference value="Substance/actual-batch-substance"/>
            </subject>
            <effectiveDateTime value="2023-01-01T12:00:00Z"/>
            <performer>
               <reference value="Organization/378fbe5f-5926-3a5c-4c64-5428df877b08"/>
            </performer>
            <specimen>
               <reference value="Specimen/stabilityInitial-1"/>
            </specimen>
            <hasMember>
               <reference value="#LongTerm30C-initial-1-Description"/>
            </hasMember>
            <hasMember>
               <reference value="#LongTerm30C-initial-1-Assay"/>
            </hasMember>
            <hasMember>
               <reference value="#LongTerm30C-initial-1-Impurity1"/>
            </hasMember>
            <hasMember>
               <reference value="#LongTerm30C-initial-1-Impurity2"/>
            </hasMember>
            <hasMember>
               <reference value="#LongTerm30C-initial-1-ImpurityUnspecified"/>
            </hasMember>
            <hasMember>
               <reference value="#LongTerm30C-initial-1-ImpurityTotal"/>
            </hasMember>
            <hasMember>
               <reference value="#LongTerm30C-initial-1-Identification"/>
            </hasMember>
         </Observation>
      </resource>
   </entry>
   <entry>
      <fullUrl value="urn:uuid:3b550915-4467-83d3-340f-9bd6d2857191"/>
      <resource>
         <Specimen>
            <id value="stabilityInitial-2"/>
            <collection>
               <collectedDateTime value="2020-06"/>
               <!-- when sample first taken, before the timed periods start -->
            </collection>
            <processing>
               <description value="No storage"/>
            </processing>
            <processing>
               <description value="25°C/60% RH"/>
            </processing>
         </Specimen>
      </resource>
   </entry>
   <!-- Section 11 - Stability Study - Results - Test Result - Long Term XYZ - Initial - on batch 2 -->
   <entry>
      <fullUrl value="urn:uuid:930c7f69-2546-7148-2069-b3be3a755edf"/>
      <resource>
         <Observation>
            <id value="LongTerm30C-Initial-2"/>
            <contained>
               <Observation>
                  <id value="LongTerm30C-initial-2-Description"/>
                  <instantiatesReference>
                     <reference value="ObservationDefinition/Description"/>
                  </instantiatesReference>
                  <!--<instantiatesCanonical value="http://example-server.com/fhir/ObservationDefinition/559ffdc3-349b-a4a3-a651-ce2715f08d69"/>-->
                  <status value="final"/>
                  <code>
                     <coding>
                        <system value="http://hl7.org/fhir/uv/pharm-quality/CodeSystem/cs-local-codes-drug-pq-example"/>
                        <code value="DESC"/>
                        <display value="Description"/>
                     </coding>
                     <text value="Description"/>
                  </code>
                  <subject>
                     <reference value="Substance/actual-batch-substance-2"/>
                  </subject>
                  <effectiveDateTime value="2023-01-01T12:00:00Z"/>
                  <performer>
                     <reference value="Organization/378fbe5f-5926-3a5c-4c64-5428df877b08"/>
                  </performer>
                  <valueCodeableConcept>
                     <text value="Complies"/>
                  </valueCodeableConcept>
               </Observation>
            </contained>
            <contained>
               <Observation>
                  <id value="LongTerm30C-initial-2-Degradation-imp1"/>
                  <instantiatesReference>
                     <reference value="ObservationDefinition/Impurities"/>
                  </instantiatesReference>
                  <!--<instantiatesCanonical value="http://example-server.com/fhir/ObservationDefinition/73d9d304-a0b8-31b6-1165-346563b9305e"/>-->
                  <status value="final"/>
                  <code>
                     <coding>
                        <system value="http://hl7.org/fhir/uv/pharm-quality/CodeSystem/cs-local-codes-drug-pq-example"/>
                        <code value="DGP"/>
                        <display value="Degradation Products"/>
                     </coding>
                     <text value="Degradation Products"/>
                  </code>
                  <subject>
                     <reference value="Substance/actual-batch-substance-2"/>
                  </subject>
                  <effectiveDateTime value="2023-01-01T12:00:00Z"/>
                  <performer>
                     <reference value="Organization/378fbe5f-5926-3a5c-4c64-5428df877b08"/>
                  </performer>
                  <valueQuantity>
                     <value value="0.12"/>
                     <unit value="% w/w"/>
                     <system value="http://unitsofmeasure.org"/>
                     <code value="%"/>
                  </valueQuantity>
                  <component>
                     <code>
                        <coding>
                           <system value="http://hl7.org/fhir/uv/pharm-quality/CodeSystem/cs-local-codes-drug-pq-example"/>
                           <code value="IMP"/>
                           <display value="Impurity"/>
                        </coding>
                     </code>
                     <valueCodeableConcept>
                                <!-- could have the code of an impurity substance, or could have an extension to point to it as a resource -->
                        <text value="Impurity"/>
                     </valueCodeableConcept>
                  </component>
               </Observation>
            </contained>
            <contained>
               <Observation>
                  <id value="LongTerm30C-initial-2-Degradation-imp2"/>
                  <instantiatesReference>
                     <reference value="ObservationDefinition/Impurities"/>
                  </instantiatesReference>
                  <!--<instantiatesCanonical value="http://example-server.com/fhir/ObservationDefinition/73d9d304-a0b8-31b6-1165-346563b9305e"/>-->
                  <status value="final"/>
                  <code>
                     <coding>
                        <system value="http://hl7.org/fhir/uv/pharm-quality/CodeSystem/cs-local-codes-drug-pq-example"/>
                        <code value="Impurities"/>
                        <display value="Impurities"/>
                     </coding>
                     <text value="Impurities"/>
                  </code>
                  <subject>
                     <reference value="Substance/actual-batch-substance-2"/>
                  </subject>
                  <effectiveDateTime value="2023-01-01T12:00:00Z"/>
                  <performer>
                     <reference value="Organization/378fbe5f-5926-3a5c-4c64-5428df877b08"/>
                  </performer>
                  <valueQuantity>
                     <value value="0.22"/>
                     <unit value="% w/w"/>
                     <system value="http://unitsofmeasure.org"/>
                     <code value="%"/>
                  </valueQuantity>
                  <component>
                     <code>
                        <coding>
                           <system value="http://hl7.org/fhir/uv/pharm-quality/CodeSystem/cs-local-codes-drug-pq-example"/>
                           <code value="IMP"/>
                           <display value="Impurity"/>
                        </coding>
                     </code>
                     <valueCodeableConcept>
                        <text value="Impurity 2"/>
                     </valueCodeableConcept>
                  </component>
               </Observation>
            </contained>
            <contained>
               <Observation>
                  <id value="LongTerm30C-initial-2-Degradation-impUnspecified"/>
                  <instantiatesReference>
                     <reference value="ObservationDefinition/Impurities"/>
                  </instantiatesReference>
                  <!--<instantiatesCanonical value="http://example-server.com/fhir/ObservationDefinition/73d9d304-a0b8-31b6-1165-346563b9305e"/>-->
                  <status value="final"/>
                  <code>
                     <coding>
                        <system value="http://hl7.org/fhir/uv/pharm-quality/CodeSystem/cs-local-codes-drug-pq-example"/>
                        <code value="Impurities"/>
                        <display value="Impurities"/>
                     </coding>
                     <text value="Impurities"/>
                  </code>
                  <subject>
                     <reference value="Substance/actual-batch-substance-2"/>
                  </subject>
                  <effectiveDateTime value="2023-01-01T12:00:00Z"/>
                  <performer>
                     <reference value="Organization/378fbe5f-5926-3a5c-4c64-5428df877b08"/>
                  </performer>
                  <valueQuantity>
                     <value value="0.052"/>
                     <comparator value="&lt;"/>
                     <unit value="% w/w"/>
                     <system value="http://unitsofmeasure.org"/>
                     <code value="%"/>
                  </valueQuantity>
                  <component>
                     <code>
                        <coding>
                           <system value="http://hl7.org/fhir/uv/pharm-quality/CodeSystem/cs-local-codes-drug-pq-example"/>
                           <code value="IMP"/>
                           <display value="Impurity"/>
                        </coding>
                     </code>
                     <valueCodeableConcept>
                        <text value="Any Unspecified Impurity"/>
                     </valueCodeableConcept>
                  </component>
               </Observation>
            </contained>
            <contained>
               <Observation>
                  <id value="LongTerm30C-initial-2-Degradation-impTotal"/>
                  <instantiatesReference>
                     <reference value="ObservationDefinition/Impurities"/>
                  </instantiatesReference>
                  <!--<instantiatesCanonical value="http://example-server.com/fhir/ObservationDefinition/73d9d304-a0b8-31b6-1165-346563b9305e"/>-->
                  <status value="final"/>
                  <code>
                     <coding>
                        <system value="http://hl7.org/fhir/uv/pharm-quality/CodeSystem/cs-local-codes-drug-pq-example"/>
                        <code value="Impurities"/>
                        <display value="Impurities"/>
                     </coding>
                     <text value="Impurities"/>
                  </code>
                  <subject>
                     <reference value="Substance/actual-batch-substance-2"/>
                  </subject>
                  <effectiveDateTime value="2023-01-01T12:00:00Z"/>
                  <performer>
                     <reference value="Organization/378fbe5f-5926-3a5c-4c64-5428df877b08"/>
                  </performer>
                  <valueQuantity>
                     <value value="0.82"/>
                     <unit value="% w/w"/>
                     <system value="http://unitsofmeasure.org"/>
                     <code value="%"/>
                  </valueQuantity>
                  <component>
                     <code>
                        <coding>
                           <system value="http://hl7.org/fhir/uv/pharm-quality/CodeSystem/cs-local-codes-drug-pq-example"/>
                           <code value="IMP"/>
                           <display value="Impurity"/>
                        </coding>
                     </code>
                     <valueCodeableConcept>
                        <text value="Total Impurities"/>
                     </valueCodeableConcept>
                  </component>
               </Observation>
            </contained>
            <contained>
               <Observation>
                  <id value="LongTerm30C-initial-2-Assay"/>
                  <instantiatesReference>
                     <reference value="ObservationDefinition/Assay"/>
                  </instantiatesReference>
                  <!--<instantiatesCanonical value="http://example-server.com/fhir/ObservationDefinition/7943795a-2abe-666f-545f-133e23b97119"/>-->
                  <status value="final"/>
                  <code>
                     <coding>
                        <system value="http://hl7.org/fhir/uv/pharm-quality/CodeSystem/cs-local-codes-drug-pq-example"/>
                        <code value="ASSAY"/>
                        <display value="Assay"/>
                     </coding>
                  </code>
                  <subject>
                     <reference value="Substance/actual-batch-substance-2"/>
                  </subject>
                  <effectiveDateTime value="2023-01-01T12:00:00Z"/>
                  <performer>
                     <reference value="Organization/378fbe5f-5926-3a5c-4c64-5428df877b08"/>
                  </performer>
                  <valueQuantity>
                     <value value="0.152"/>
                     <unit value="% w/w"/>
                     <system value="http://unitsofmeasure.org"/>
                     <code value="%"/>
                  </valueQuantity>
               </Observation>
            </contained>
            <contained>
               <Observation>
                  <id value="LongTerm30C-initial-2-Identification"/>
                  <instantiatesReference>
                     <reference value="ObservationDefinition/Identification"/>
                  </instantiatesReference>
                  <!--<instantiatesCanonical value="http://example-server.com/fhir/ObservationDefinition/6b96124b-1a44-0b6b-6783-d6c49360230b"/>-->
                  <status value="final"/>
                  <code>
                     <coding>
                        <system value="http://hl7.org/fhir/uv/pharm-quality/CodeSystem/cs-local-codes-drug-pq-example"/>
                        <code value="IDT"/>
                        <display value="Identification"/>
                     </coding>
                     <text value="Identification"/>
                  </code>
                  <subject>
                     <reference value="Substance/actual-batch-substance-2"/>
                  </subject>
                  <effectiveDateTime value="2023-01-01T12:00:00Z"/>
                  <performer>
                     <reference value="Organization/378fbe5f-5926-3a5c-4c64-5428df877b08"/>
                  </performer>
                  <valueCodeableConcept>
                     <text value="Does not comply"/>
                  </valueCodeableConcept>
               </Observation>
            </contained>
            <extension url="http://hl7.org/fhir/StructureDefinition/workflow-triggeredBy">
               <valueReference>
                  <reference value="ActivityDefinition/activityLongTerm30XY-Initial"/>
               </valueReference>
            </extension>
            <status value="final"/>
            <code>
               <text value="Test Components - Long-term 25C etc - Initial (XYZ)"/>
            </code>
            <subject>
               <reference value="Substance/actual-batch-substance-2"/>
            </subject>
            <effectiveDateTime value="2023-01-01T12:00:00Z"/>
            <performer>
               <reference value="Organization/378fbe5f-5926-3a5c-4c64-5428df877b08"/>
            </performer>
            <specimen>
               <reference value="Specimen/stabilityInitial-2"/>
            </specimen>
            <hasMember>
               <reference value="#LongTerm30C-initial-2-Description"/>
            </hasMember>
            <hasMember>
               <reference value="#LongTerm30C-initial-2-Assay"/>
            </hasMember>
            <hasMember>
               <reference value="#LongTerm30C-initial-2-Degradation-imp1"/>
            </hasMember>
            <hasMember>
               <reference value="#LongTerm30C-initial-2-Degradation-imp2"/>
            </hasMember>
            <hasMember>
               <reference value="#LongTerm30C-initial-2-Degradation-impUnspecified"/>
            </hasMember>
            <hasMember>
               <reference value="#LongTerm30C-initial-2-Degradation-impTotal"/>
            </hasMember>
            <hasMember>
               <reference value="#LongTerm30C-initial-2-Identification"/>
            </hasMember>
         </Observation>
      </resource>
   </entry>
   <entry>
      <fullUrl value="urn:uuid:b1726ce3-8bb5-403e-2e9b-f5d79cc716f9"/>
      <resource>
         <Specimen>
            <id value="stabilityInitial-3"/>
            <collection>
               <collectedDateTime value="2020-06"/>
               <!-- when sample first taken, before the timed periods start -->
            </collection>
            <processing>
               <description value="No storage"/>
            </processing>
            <processing>
               <description value="25°C/60% RH"/>
            </processing>
         </Specimen>
      </resource>
   </entry>
   <!-- Section 11 - Stability Study - Results - Test Result - Long Term XYZ - Initial - on batch 3 -->
   <entry>
      <fullUrl value="urn:uuid:8070745c-30c4-a52e-41fd-600a913578d4"/>
      <resource>
         <Observation>
            <id value="LongTerm30C-Initial-3"/>
            <contained>
               <Observation>
                  <id value="LongTerm30C-initial-3-Description"/>
                  <instantiatesReference>
                     <reference value="ObservationDefinition/Description"/>
                  </instantiatesReference>
                  <!--<instantiatesCanonical value="http://example-server.com/fhir/ObservationDefinition/559ffdc3-349b-a4a3-a651-ce2715f08d69"/>-->
                  <status value="final"/>
                  <code>
                     <coding>
                        <system value="http://hl7.org/fhir/uv/pharm-quality/CodeSystem/cs-local-codes-drug-pq-example"/>
                        <code value="DESC"/>
                        <display value="Description"/>
                     </coding>
                     <text value="Description"/>
                  </code>
                  <subject>
                     <reference value="Substance/actual-batch-substance-3"/>
                  </subject>
                  <effectiveDateTime value="2023-01-01T12:00:00Z"/>
                  <performer>
                     <reference value="Organization/378fbe5f-5926-3a5c-4c64-5428df877b08"/>
                  </performer>
                  <valueCodeableConcept>
                     <text value="Complies"/>
                  </valueCodeableConcept>
               </Observation>
            </contained>
            <contained>
               <Observation>
                  <id value="LongTerm30C-initial-3-Degradation-imp1"/>
                  <instantiatesReference>
                     <reference value="ObservationDefinition/Impurities"/>
                  </instantiatesReference>
                  <!--<instantiatesCanonical value="http://example-server.com/fhir/ObservationDefinition/73d9d304-a0b8-31b6-1165-346563b9305e"/>-->
                  <status value="final"/>
                  <code>
                     <coding>
                        <system value="http://hl7.org/fhir/uv/pharm-quality/CodeSystem/cs-local-codes-drug-pq-example"/>
                        <code value="DGP"/>
                        <display value="Degradation Products"/>
                     </coding>
                     <text value="Degradation Products"/>
                  </code>
                  <subject>
                     <reference value="Substance/actual-batch-substance-3"/>
                  </subject>
                  <effectiveDateTime value="2023-01-01T12:00:00Z"/>
                  <performer>
                     <reference value="Organization/378fbe5f-5926-3a5c-4c64-5428df877b08"/>
                  </performer>
                  <valueQuantity>
                     <value value="0.12"/>
                     <unit value="% w/w"/>
                     <system value="http://unitsofmeasure.org"/>
                     <code value="%"/>
                  </valueQuantity>
                  <component>
                     <code>
                        <coding>
                           <system value="http://hl7.org/fhir/uv/pharm-quality/CodeSystem/cs-local-codes-drug-pq-example"/>
                           <code value="IMP"/>
                           <display value="Impurity"/>
                        </coding>
                     </code>
                     <valueCodeableConcept>
                                <!-- could have the code of an impurity substance, or could have an extension to point to it as a resource -->
                        <text value="Impurity"/>
                     </valueCodeableConcept>
                  </component>
               </Observation>
            </contained>
            <contained>
               <Observation>
                  <id value="LongTerm30C-initial-3-Degradation-imp2"/>
                  <instantiatesReference>
                     <reference value="ObservationDefinition/Impurities"/>
                  </instantiatesReference>
                  <!--<instantiatesCanonical value="http://example-server.com/fhir/ObservationDefinition/73d9d304-a0b8-31b6-1165-346563b9305e"/>-->
                  <status value="final"/>
                  <code>
                     <coding>
                        <system value="http://hl7.org/fhir/uv/pharm-quality/CodeSystem/cs-local-codes-drug-pq-example"/>
                        <code value="Impurities"/>
                        <display value="Impurities"/>
                     </coding>
                     <text value="Impurities"/>
                  </code>
                  <subject>
                     <reference value="Substance/actual-batch-substance-3"/>
                  </subject>
                  <effectiveDateTime value="2023-01-01T12:00:00Z"/>
                  <performer>
                     <reference value="Organization/378fbe5f-5926-3a5c-4c64-5428df877b08"/>
                  </performer>
                  <valueQuantity>
                     <value value="0.22"/>
                     <unit value="% w/w"/>
                     <system value="http://unitsofmeasure.org"/>
                     <code value="%"/>
                  </valueQuantity>
                  <component>
                     <code>
                        <coding>
                           <system value="http://hl7.org/fhir/uv/pharm-quality/CodeSystem/cs-local-codes-drug-pq-example"/>
                           <code value="IMP"/>
                           <display value="Impurity"/>
                        </coding>
                     </code>
                     <valueCodeableConcept>
                        <text value="Impurity 2"/>
                     </valueCodeableConcept>
                  </component>
               </Observation>
            </contained>
            <contained>
               <Observation>
                  <id value="LongTerm30C-initial-3-Degradation-impUnspecified"/>
                  <instantiatesReference>
                     <reference value="ObservationDefinition/Impurities"/>
                  </instantiatesReference>
                  <!--<instantiatesCanonical value="http://example-server.com/fhir/ObservationDefinition/73d9d304-a0b8-31b6-1165-346563b9305e"/>-->
                  <status value="final"/>
                  <code>
                     <coding>
                        <system value="http://hl7.org/fhir/uv/pharm-quality/CodeSystem/cs-local-codes-drug-pq-example"/>
                        <code value="Impurities"/>
                        <display value="Impurities"/>
                     </coding>
                     <text value="Impurities"/>
                  </code>
                  <subject>
                     <reference value="Substance/actual-batch-substance-3"/>
                  </subject>
                  <effectiveDateTime value="2023-01-01T12:00:00Z"/>
                  <performer>
                     <reference value="Organization/378fbe5f-5926-3a5c-4c64-5428df877b08"/>
                  </performer>
                  <valueQuantity>
                     <value value="0.052"/>
                     <comparator value="&lt;"/>
                     <unit value="% w/w"/>
                     <system value="http://unitsofmeasure.org"/>
                     <code value="%"/>
                  </valueQuantity>
                  <component>
                     <code>
                        <coding>
                           <system value="http://hl7.org/fhir/uv/pharm-quality/CodeSystem/cs-local-codes-drug-pq-example"/>
                           <code value="IMP"/>
                           <display value="Impurity"/>
                        </coding>
                     </code>
                     <valueCodeableConcept>
                        <text value="Any Unspecified Impurity"/>
                     </valueCodeableConcept>
                  </component>
               </Observation>
            </contained>
            <contained>
               <Observation>
                  <id value="LongTerm30C-initial-3-Degradation-impTotal"/>
                  <instantiatesReference>
                     <reference value="ObservationDefinition/Impurities"/>
                  </instantiatesReference>
                  <!--<instantiatesCanonical value="http://example-server.com/fhir/ObservationDefinition/73d9d304-a0b8-31b6-1165-346563b9305e"/>-->
                  <status value="final"/>
                  <code>
                     <coding>
                        <system value="http://hl7.org/fhir/uv/pharm-quality/CodeSystem/cs-local-codes-drug-pq-example"/>
                        <code value="Impurities"/>
                        <display value="Impurities"/>
                     </coding>
                     <text value="Impurities"/>
                  </code>
                  <subject>
                     <reference value="Substance/actual-batch-substance-3"/>
                  </subject>
                  <effectiveDateTime value="2023-01-01T12:00:00Z"/>
                  <performer>
                     <reference value="Organization/378fbe5f-5926-3a5c-4c64-5428df877b08"/>
                  </performer>
                  <valueQuantity>
                     <value value="0.82"/>
                     <unit value="% w/w"/>
                     <system value="http://unitsofmeasure.org"/>
                     <code value="%"/>
                  </valueQuantity>
                  <component>
                     <code>
                        <coding>
                           <system value="http://hl7.org/fhir/uv/pharm-quality/CodeSystem/cs-local-codes-drug-pq-example"/>
                           <code value="IMP"/>
                           <display value="Impurity"/>
                        </coding>
                     </code>
                     <valueCodeableConcept>
                        <text value="Total Impurities"/>
                     </valueCodeableConcept>
                  </component>
               </Observation>
            </contained>
            <contained>
               <Observation>
                  <id value="LongTerm30C-initial-3-Assay"/>
                  <instantiatesReference>
                     <reference value="ObservationDefinition/Assay"/>
                  </instantiatesReference>
                  <!--<instantiatesCanonical value="http://example-server.com/fhir/ObservationDefinition/7943795a-2abe-666f-545f-133e23b97119"/>-->
                  <status value="final"/>
                  <code>
                     <coding>
                        <system value="http://hl7.org/fhir/uv/pharm-quality/CodeSystem/cs-local-codes-drug-pq-example"/>
                        <code value="ASSAY"/>
                        <display value="Assay"/>
                     </coding>
                  </code>
                  <subject>
                     <reference value="Substance/actual-batch-substance-3"/>
                  </subject>
                  <effectiveDateTime value="2023-01-01T12:00:00Z"/>
                  <performer>
                     <reference value="Organization/378fbe5f-5926-3a5c-4c64-5428df877b08"/>
                  </performer>
                  <valueQuantity>
                     <value value="0.152"/>
                     <unit value="% w/w"/>
                     <system value="http://unitsofmeasure.org"/>
                     <code value="%"/>
                  </valueQuantity>
               </Observation>
            </contained>
            <contained>
               <Observation>
                  <id value="LongTerm30C-initial-3-Identification"/>
                  <instantiatesReference>
                     <reference value="ObservationDefinition/Identification"/>
                  </instantiatesReference>
                  <!--<instantiatesCanonical value="http://example-server.com/fhir/ObservationDefinition/6b96124b-1a44-0b6b-6783-d6c49360230b"/>-->
                  <status value="final"/>
                  <code>
                     <coding>
                        <system value="http://hl7.org/fhir/uv/pharm-quality/CodeSystem/cs-local-codes-drug-pq-example"/>
                        <code value="IDT"/>
                        <display value="Identification"/>
                     </coding>
                     <text value="Identification"/>
                  </code>
                  <subject>
                     <reference value="Substance/actual-batch-substance-3"/>
                  </subject>
                  <effectiveDateTime value="2023-01-01T12:00:00Z"/>
                  <performer>
                     <reference value="Organization/378fbe5f-5926-3a5c-4c64-5428df877b08"/>
                  </performer>
                  <valueCodeableConcept>
                     <text value="Does not comply"/>
                  </valueCodeableConcept>
               </Observation>
            </contained>
            <extension url="http://hl7.org/fhir/StructureDefinition/workflow-triggeredBy">
               <valueReference>
                  <reference value="ActivityDefinition/activityLongTerm30XY-Initial"/>
               </valueReference>
            </extension>
            <status value="final"/>
            <code>
               <text value="Test Components - Long-term 25C etc - Initial (XYZ)"/>
            </code>
            <subject>
               <reference value="Substance/actual-batch-substance-3"/>
            </subject>
            <effectiveDateTime value="2023-01-01T12:00:00Z"/>
            <performer>
               <reference value="Organization/378fbe5f-5926-3a5c-4c64-5428df877b08"/>
            </performer>
            <specimen>
               <reference value="Specimen/stabilityInitial-3"/>
            </specimen>
            <hasMember>
               <reference value="#LongTerm30C-initial-3-Description"/>
            </hasMember>
            <hasMember>
               <reference value="#LongTerm30C-initial-3-Assay"/>
            </hasMember>
            <hasMember>
               <reference value="#LongTerm30C-initial-3-Degradation-imp1"/>
            </hasMember>
            <hasMember>
               <reference value="#LongTerm30C-initial-3-Degradation-imp2"/>
            </hasMember>
            <hasMember>
               <reference value="#LongTerm30C-initial-3-Degradation-impUnspecified"/>
            </hasMember>
            <hasMember>
               <reference value="#LongTerm30C-initial-3-Degradation-impTotal"/>
            </hasMember>
            <hasMember>
               <reference value="#LongTerm30C-initial-3-Identification"/>
            </hasMember>
         </Observation>
      </resource>
   </entry>
   <entry>
      <fullUrl value="urn:uuid:7aa5fdea-17d7-29f1-1ed4-5c05eb62285a"/>
      <resource>
         <Specimen>
            <id value="stability18months-1"/>
            <collection>
               <collectedDateTime value="2020-06"/>
            </collection>
            <processing>
               <description value="Store for 18 months"/>
               <timePeriod>
                  <extension url="http://hl7.org/fhir/uv/pharm-quality/StructureDefinition/Extension-batch-storage-duration-pq">
                     <valueDuration>
                        <value value="18"/>
                        <unit value="month"/>
                     </valueDuration>
                  </extension>
                  <start value="2020-12"/>
                  <end value="2022-06"/>
               </timePeriod>
            </processing>
            <processing>
               <description value="30°C/65% RH"/>
            </processing>
         </Specimen>
      </resource>
   </entry>
   <entry>
      <fullUrl value="urn:uuid:872a645f-120e-44c0-62c0-9be05acf543b"/>
      <resource>
         <Specimen>
            <id value="stability18months-2"/>
            <collection>
               <collectedDateTime value="2020-06"/>
            </collection>
            <processing>
               <description value="Store for 18 months"/>
               <timePeriod>
                  <extension url="http://hl7.org/fhir/uv/pharm-quality/StructureDefinition/Extension-batch-storage-duration-pq">
                     <valueDuration>
                        <value value="18"/>
                        <unit value="month"/>
                     </valueDuration>
                  </extension>
                  <start value="2020-12"/>
                  <end value="2022-06"/>
               </timePeriod>
            </processing>
            <processing>
               <description value="30°C/65% RH"/>
            </processing>
         </Specimen>
      </resource>
   </entry>
   <entry>
      <fullUrl value="urn:uuid:7c06a03c-9cf7-2e1b-a236-d60038f1439b"/>
      <resource>
         <Specimen>
            <id value="stability18months-3"/>
            <collection>
               <collectedDateTime value="2020-06"/>
            </collection>
            <processing>
               <description value="Store for 18 months"/>
               <timePeriod>
                  <extension url="http://hl7.org/fhir/uv/pharm-quality/StructureDefinition/Extension-batch-storage-duration-pq">
                     <valueDuration>
                        <value value="18"/>
                        <unit value="month"/>
                     </valueDuration>
                  </extension>
                  <start value="2020-12"/>
                  <end value="2022-06"/>
               </timePeriod>
            </processing>
            <processing>
               <description value="30°C/65% RH"/>
            </processing>
         </Specimen>
      </resource>
   </entry>
   <entry>
      <fullUrl value="urn:uuid:f16113fe-27e7-0aa2-6787-9415f5051900"/>
      <resource>
         <Observation>
            <id value="LongTerm30C-18m"/>
            <contained>
               <Observation>
                  <id value="LongTerm30C-18m-1-Description"/>
                  <instantiatesReference>
                     <reference value="ObservationDefinition/Description"/>
                  </instantiatesReference>
                  <!--<instantiatesCanonical value="http://example-server.com/fhir/ObservationDefinition/559ffdc3-349b-a4a3-a651-ce2715f08d69"/>-->
                  <status value="final"/>
                  <code>
                     <coding>
                        <system value="http://hl7.org/fhir/uv/pharm-quality/CodeSystem/cs-local-codes-drug-pq-example"/>
                        <code value="DESC"/>
                        <display value="Description"/>
                     </coding>
                     <text value="Description"/>
                  </code>
                  <subject>
                     <reference value="Substance/actual-batch-substance"/>
                  </subject>
                  <effectiveDateTime value="2023-01-01T12:00:00Z"/>
                  <performer>
                     <reference value="Organization/378fbe5f-5926-3a5c-4c64-5428df877b08"/>
                  </performer>
                  <valueCodeableConcept>
                     <text value="Complies"/>
                  </valueCodeableConcept>
               </Observation>
            </contained>
            <contained>
               <Observation>
                  <id value="LongTerm30C-18m-1-Impurity1"/>
                  <instantiatesReference>
                     <reference value="ObservationDefinition/Impurities"/>
                  </instantiatesReference>
                  <!--<instantiatesCanonical value="http://example-server.com/fhir/ObservationDefinition/73d9d304-a0b8-31b6-1165-346563b9305e"/>-->
                  <status value="final"/>
                  <code>
                     <coding>
                        <system value="http://hl7.org/fhir/uv/pharm-quality/CodeSystem/cs-local-codes-drug-pq-example"/>
                        <code value="DGP"/>
                        <display value="Degradation Products"/>
                     </coding>
                     <text value="Degradation Products"/>
                  </code>
                  <subject>
                     <reference value="Substance/actual-batch-substance"/>
                  </subject>
                  <effectiveDateTime value="2023-01-01T12:00:00Z"/>
                  <performer>
                     <reference value="Organization/378fbe5f-5926-3a5c-4c64-5428df877b08"/>
                  </performer>
                  <valueQuantity>
                     <value value="0.118"/>
                     <unit value="% w/w"/>
                     <system value="http://unitsofmeasure.org"/>
                     <code value="%"/>
                  </valueQuantity>
                  <component>
                     <code>
                        <coding>
                           <system value="http://hl7.org/fhir/uv/pharm-quality/CodeSystem/cs-local-codes-drug-pq-example"/>
                           <code value="IMP"/>
                           <display value="Impurity"/>
                        </coding>
                     </code>
                     <valueCodeableConcept>
                                <!-- could have the code of an impurity substance, or could have an extension to point to it as a resource -->
                        <text value="Impurity"/>
                     </valueCodeableConcept>
                  </component>
               </Observation>
            </contained>
            <contained>
               <Observation>
                  <id value="LongTerm30C-18m-1-Impurity2"/>
                  <instantiatesReference>
                     <reference value="ObservationDefinition/Impurities"/>
                  </instantiatesReference>
                  <!--<instantiatesCanonical value="http://example-server.com/fhir/ObservationDefinition/73d9d304-a0b8-31b6-1165-346563b9305e"/>-->
                  <status value="final"/>
                  <code>
                     <coding>
                        <system value="http://hl7.org/fhir/uv/pharm-quality/CodeSystem/cs-local-codes-drug-pq-example"/>
                        <code value="Impurities"/>
                        <display value="Impurities"/>
                     </coding>
                     <text value="Impurities"/>
                  </code>
                  <subject>
                     <reference value="Substance/actual-batch-substance"/>
                  </subject>
                  <effectiveDateTime value="2023-01-01T12:00:00Z"/>
                  <performer>
                     <reference value="Organization/378fbe5f-5926-3a5c-4c64-5428df877b08"/>
                  </performer>
                  <valueQuantity>
                     <value value="0.218"/>
                     <unit value="% w/w"/>
                     <system value="http://unitsofmeasure.org"/>
                     <code value="%"/>
                  </valueQuantity>
                  <component>
                     <code>
                        <coding>
                           <system value="http://hl7.org/fhir/uv/pharm-quality/CodeSystem/cs-local-codes-drug-pq-example"/>
                           <code value="IMP"/>
                           <display value="Impurity"/>
                        </coding>
                     </code>
                     <valueCodeableConcept>
                        <text value="Impurity 2"/>
                     </valueCodeableConcept>
                  </component>
               </Observation>
            </contained>
            <contained>
               <Observation>
                  <id value="LongTerm30C-18m-1-ImpurityUnspecified"/>
                  <instantiatesReference>
                     <reference value="ObservationDefinition/Impurities"/>
                  </instantiatesReference>
                  <!--<instantiatesCanonical value="http://example-server.com/fhir/ObservationDefinition/73d9d304-a0b8-31b6-1165-346563b9305e"/>-->
                  <status value="final"/>
                  <code>
                     <coding>
                        <system value="http://hl7.org/fhir/uv/pharm-quality/CodeSystem/cs-local-codes-drug-pq-example"/>
                        <code value="Impurities"/>
                        <display value="Impurities"/>
                     </coding>
                     <text value="Impurities"/>
                  </code>
                  <subject>
                     <reference value="Substance/actual-batch-substance"/>
                  </subject>
                  <effectiveDateTime value="2023-01-01T12:00:00Z"/>
                  <performer>
                     <reference value="Organization/378fbe5f-5926-3a5c-4c64-5428df877b08"/>
                  </performer>
                  <valueQuantity>
                     <value value="0.0518"/>
                     <comparator value="&lt;"/>
                     <unit value="% w/w"/>
                     <system value="http://unitsofmeasure.org"/>
                     <code value="%"/>
                  </valueQuantity>
                  <component>
                     <code>
                        <coding>
                           <system value="http://hl7.org/fhir/uv/pharm-quality/CodeSystem/cs-local-codes-drug-pq-example"/>
                           <code value="IMP"/>
                           <display value="Impurity"/>
                        </coding>
                     </code>
                     <valueCodeableConcept>
                        <text value="Any Unspecified Impurity"/>
                     </valueCodeableConcept>
                  </component>
               </Observation>
            </contained>
            <contained>
               <Observation>
                  <id value="LongTerm30C-18m-1-ImpurityTotal"/>
                  <instantiatesReference>
                     <reference value="ObservationDefinition/Impurities"/>
                  </instantiatesReference>
                  <!--<instantiatesCanonical value="http://example-server.com/fhir/ObservationDefinition/73d9d304-a0b8-31b6-1165-346563b9305e"/>-->
                  <status value="final"/>
                  <code>
                     <coding>
                        <system value="http://hl7.org/fhir/uv/pharm-quality/CodeSystem/cs-local-codes-drug-pq-example"/>
                        <code value="Impurities"/>
                        <display value="Impurities"/>
                     </coding>
                     <text value="Impurities"/>
                  </code>
                  <subject>
                     <reference value="Substance/actual-batch-substance"/>
                  </subject>
                  <effectiveDateTime value="2023-01-01T12:00:00Z"/>
                  <performer>
                     <reference value="Organization/378fbe5f-5926-3a5c-4c64-5428df877b08"/>
                  </performer>
                  <valueQuantity>
                     <value value="0.818"/>
                     <unit value="% w/w"/>
                     <system value="http://unitsofmeasure.org"/>
                     <code value="%"/>
                  </valueQuantity>
                  <component>
                     <code>
                        <coding>
                           <system value="http://hl7.org/fhir/uv/pharm-quality/CodeSystem/cs-local-codes-drug-pq-example"/>
                           <code value="IMP"/>
                           <display value="Impurity"/>
                        </coding>
                     </code>
                     <valueCodeableConcept>
                        <text value="Total Impurities"/>
                     </valueCodeableConcept>
                  </component>
               </Observation>
            </contained>
            <contained>
               <Observation>
                  <id value="LongTerm30C-18m-1-Assay"/>
                  <instantiatesReference>
                     <reference value="ObservationDefinition/Assay"/>
                  </instantiatesReference>
                  <!--<instantiatesCanonical value="http://example-server.com/fhir/ObservationDefinition/7943795a-2abe-666f-545f-133e23b97119"/>-->
                  <status value="final"/>
                  <code>
                     <coding>
                        <system value="http://hl7.org/fhir/uv/pharm-quality/CodeSystem/cs-local-codes-drug-pq-example"/>
                        <code value="ASSAY"/>
                        <display value="Assay"/>
                     </coding>
                  </code>
                  <subject>
                     <reference value="Substance/actual-batch-substance"/>
                  </subject>
                  <effectiveDateTime value="2023-01-01T12:00:00Z"/>
                  <performer>
                     <reference value="Organization/378fbe5f-5926-3a5c-4c64-5428df877b08"/>
                  </performer>
                  <valueQuantity>
                     <value value="0.118"/>
                     <unit value="% w/w"/>
                     <system value="http://unitsofmeasure.org"/>
                     <code value="%"/>
                  </valueQuantity>
               </Observation>
            </contained>
            <contained>
               <Observation>
                  <id value="LongTerm30C-18m-1-Identification"/>
                  <instantiatesReference>
                     <reference value="ObservationDefinition/Identification"/>
                  </instantiatesReference>
                  <!--<instantiatesCanonical value="http://example-server.com/fhir/ObservationDefinition/6b96124b-1a44-0b6b-6783-d6c49360230b"/>-->
                  <status value="final"/>
                  <code>
                     <coding>
                        <system value="http://hl7.org/fhir/uv/pharm-quality/CodeSystem/cs-local-codes-drug-pq-example"/>
                        <code value="IDT"/>
                        <display value="Identification"/>
                     </coding>
                     <text value="Identification"/>
                  </code>
                  <subject>
                     <reference value="Substance/actual-batch-substance"/>
                  </subject>
                  <effectiveDateTime value="2023-01-01T12:00:00Z"/>
                  <performer>
                     <reference value="Organization/378fbe5f-5926-3a5c-4c64-5428df877b08"/>
                  </performer>
                  <valueCodeableConcept>
                     <text value="Complies"/>
                  </valueCodeableConcept>
               </Observation>
            </contained>
            <!-- use a standard extension to say what plan this is being done for. However it doesn't link to the step of that plan
                     that would mean using sub-ActivityDefintions probably -->
            <extension url="http://hl7.org/fhir/StructureDefinition/workflow-triggeredBy">
               <valueReference>
                  <reference value="ActivityDefinition/activityLongTerm30X-18"/>
               </valueReference>
            </extension>
            <status value="final"/>
            <code>
               <text value="Long-term - 30°C/65% RH - 18 months (X)"/>
            </code>
            <subject>
               <reference value="Substance/actual-batch-substance"/>
            </subject>
            <effectiveDateTime value="2023-01-01T12:00:00Z"/>
            <performer>
               <reference value="Organization/378fbe5f-5926-3a5c-4c64-5428df877b08"/>
            </performer>
            <specimen>
               <reference value="Specimen/stability18months-1"/>
            </specimen>
            <hasMember>
               <reference value="#LongTerm30C-18m-1-Description"/>
            </hasMember>
            <hasMember>
               <reference value="#LongTerm30C-18m-1-Assay"/>
            </hasMember>
            <hasMember>
               <reference value="#LongTerm30C-18m-1-Impurity1"/>
            </hasMember>
            <hasMember>
               <reference value="#LongTerm30C-18m-1-Impurity2"/>
            </hasMember>
            <hasMember>
               <reference value="#LongTerm30C-18m-1-ImpurityUnspecified"/>
            </hasMember>
            <hasMember>
               <reference value="#LongTerm30C-18m-1-ImpurityTotal"/>
            </hasMember>
            <hasMember>
               <reference value="#LongTerm30C-18m-1-Identification"/>
            </hasMember>
         </Observation>
      </resource>
   </entry>
   <!-- batch 2 -->
   <entry>
      <fullUrl value="urn:uuid:1b25eb25-9149-02f6-9676-c87f90c64904"/>
      <resource>
         <Observation>
            <id value="LongTerm30C-18m-2"/>
            <contained>
               <Observation>
                  <id value="LongTerm30C-18m-2-Description"/>
                  <instantiatesReference>
                     <reference value="ObservationDefinition/Description"/>
                  </instantiatesReference>
                  <!--<instantiatesCanonical value="http://example-server.com/fhir/ObservationDefinition/559ffdc3-349b-a4a3-a651-ce2715f08d69"/>-->
                  <status value="final"/>
                  <code>
                     <coding>
                        <system value="http://hl7.org/fhir/uv/pharm-quality/CodeSystem/cs-local-codes-drug-pq-example"/>
                        <code value="DESC"/>
                        <display value="Description"/>
                     </coding>
                     <text value="Description"/>
                  </code>
                  <subject>
                     <reference value="Substance/actual-batch-substance-2"/>
                  </subject>
                  <effectiveDateTime value="2023-01-01T12:00:00Z"/>
                  <performer>
                     <reference value="Organization/378fbe5f-5926-3a5c-4c64-5428df877b08"/>
                  </performer>
                  <valueCodeableConcept>
                     <text value="Complies"/>
                  </valueCodeableConcept>
               </Observation>
            </contained>
            <contained>
               <Observation>
                  <id value="LongTerm30C-18m-2-Impurity1"/>
                  <instantiatesReference>
                     <reference value="ObservationDefinition/Impurities"/>
                  </instantiatesReference>
                  <!--<instantiatesCanonical value="http://example-server.com/fhir/ObservationDefinition/73d9d304-a0b8-31b6-1165-346563b9305e"/>-->
                  <status value="final"/>
                  <code>
                     <coding>
                        <system value="http://hl7.org/fhir/uv/pharm-quality/CodeSystem/cs-local-codes-drug-pq-example"/>
                        <code value="DGP"/>
                        <display value="Degradation Products"/>
                     </coding>
                     <text value="Degradation Products"/>
                  </code>
                  <subject>
                     <reference value="Substance/actual-batch-substance-2"/>
                  </subject>
                  <effectiveDateTime value="2023-01-01T12:00:00Z"/>
                  <performer>
                     <reference value="Organization/378fbe5f-5926-3a5c-4c64-5428df877b08"/>
                  </performer>
                  <valueQuantity>
                     <value value="0.118"/>
                     <unit value="% w/w"/>
                     <system value="http://unitsofmeasure.org"/>
                     <code value="%"/>
                  </valueQuantity>
                  <component>
                     <code>
                        <coding>
                           <system value="http://hl7.org/fhir/uv/pharm-quality/CodeSystem/cs-local-codes-drug-pq-example"/>
                           <code value="IMP"/>
                           <display value="Impurity"/>
                        </coding>
                     </code>
                     <valueCodeableConcept>
                                <!-- could have the code of an impurity substance, or could have an extension to point to it as a resource -->
                        <text value="Impurity"/>
                     </valueCodeableConcept>
                  </component>
               </Observation>
            </contained>
            <contained>
               <Observation>
                  <id value="LongTerm30C-18m-2-Impurity2"/>
                  <instantiatesReference>
                     <reference value="ObservationDefinition/Impurities"/>
                  </instantiatesReference>
                  <!--<instantiatesCanonical value="http://example-server.com/fhir/ObservationDefinition/73d9d304-a0b8-31b6-1165-346563b9305e"/>-->
                  <status value="final"/>
                  <code>
                     <coding>
                        <system value="http://hl7.org/fhir/uv/pharm-quality/CodeSystem/cs-local-codes-drug-pq-example"/>
                        <code value="Impurities"/>
                        <display value="Impurities"/>
                     </coding>
                     <text value="Impurities"/>
                  </code>
                  <subject>
                     <reference value="Substance/actual-batch-substance-2"/>
                  </subject>
                  <effectiveDateTime value="2023-01-01T12:00:00Z"/>
                  <performer>
                     <reference value="Organization/378fbe5f-5926-3a5c-4c64-5428df877b08"/>
                  </performer>
                  <valueQuantity>
                     <value value="0.218"/>
                     <unit value="% w/w"/>
                     <system value="http://unitsofmeasure.org"/>
                     <code value="%"/>
                  </valueQuantity>
                  <component>
                     <code>
                        <coding>
                           <system value="http://hl7.org/fhir/uv/pharm-quality/CodeSystem/cs-local-codes-drug-pq-example"/>
                           <code value="IMP"/>
                           <display value="Impurity"/>
                        </coding>
                     </code>
                     <valueCodeableConcept>
                        <text value="Impurity 2"/>
                     </valueCodeableConcept>
                  </component>
               </Observation>
            </contained>
            <contained>
               <Observation>
                  <id value="LongTerm30C-18m-2-ImpurityUnspecified"/>
                  <instantiatesReference>
                     <reference value="ObservationDefinition/Impurities"/>
                  </instantiatesReference>
                  <!--<instantiatesCanonical value="http://example-server.com/fhir/ObservationDefinition/73d9d304-a0b8-31b6-1165-346563b9305e"/>-->
                  <status value="final"/>
                  <code>
                     <coding>
                        <system value="http://hl7.org/fhir/uv/pharm-quality/CodeSystem/cs-local-codes-drug-pq-example"/>
                        <code value="Impurities"/>
                        <display value="Impurities"/>
                     </coding>
                     <text value="Impurities"/>
                  </code>
                  <subject>
                     <reference value="Substance/actual-batch-substance-2"/>
                  </subject>
                  <effectiveDateTime value="2023-01-01T12:00:00Z"/>
                  <performer>
                     <reference value="Organization/378fbe5f-5926-3a5c-4c64-5428df877b08"/>
                  </performer>
                  <valueQuantity>
                     <value value="0.0518"/>
                     <comparator value="&lt;"/>
                     <unit value="% w/w"/>
                     <system value="http://unitsofmeasure.org"/>
                     <code value="%"/>
                  </valueQuantity>
                  <component>
                     <code>
                        <coding>
                           <system value="http://hl7.org/fhir/uv/pharm-quality/CodeSystem/cs-local-codes-drug-pq-example"/>
                           <code value="IMP"/>
                           <display value="Impurity"/>
                        </coding>
                     </code>
                     <valueCodeableConcept>
                        <text value="Any Unspecified Impurity"/>
                     </valueCodeableConcept>
                  </component>
               </Observation>
            </contained>
            <contained>
               <Observation>
                  <id value="LongTerm30C-18m-2-ImpurityTotal"/>
                  <instantiatesReference>
                     <reference value="ObservationDefinition/Impurities"/>
                  </instantiatesReference>
                  <!--<instantiatesCanonical value="http://example-server.com/fhir/ObservationDefinition/73d9d304-a0b8-31b6-1165-346563b9305e"/>-->
                  <status value="final"/>
                  <code>
                     <coding>
                        <system value="http://hl7.org/fhir/uv/pharm-quality/CodeSystem/cs-local-codes-drug-pq-example"/>
                        <code value="Impurities"/>
                        <display value="Impurities"/>
                     </coding>
                     <text value="Impurities"/>
                  </code>
                  <subject>
                     <reference value="Substance/actual-batch-substance-2"/>
                  </subject>
                  <effectiveDateTime value="2023-01-01T12:00:00Z"/>
                  <performer>
                     <reference value="Organization/378fbe5f-5926-3a5c-4c64-5428df877b08"/>
                  </performer>
                  <valueQuantity>
                     <value value="0.818"/>
                     <unit value="% w/w"/>
                     <system value="http://unitsofmeasure.org"/>
                     <code value="%"/>
                  </valueQuantity>
                  <component>
                     <code>
                        <coding>
                           <system value="http://hl7.org/fhir/uv/pharm-quality/CodeSystem/cs-local-codes-drug-pq-example"/>
                           <code value="IMP"/>
                           <display value="Impurity"/>
                        </coding>
                     </code>
                     <valueCodeableConcept>
                        <text value="Total Impurities"/>
                     </valueCodeableConcept>
                  </component>
               </Observation>
            </contained>
            <contained>
               <Observation>
                  <id value="LongTerm30C-18m-2-Assay"/>
                  <instantiatesReference>
                     <reference value="ObservationDefinition/Assay"/>
                  </instantiatesReference>
                  <!--<instantiatesCanonical value="http://example-server.com/fhir/ObservationDefinition/7943795a-2abe-666f-545f-133e23b97119"/>-->
                  <status value="final"/>
                  <code>
                     <coding>
                        <system value="http://hl7.org/fhir/uv/pharm-quality/CodeSystem/cs-local-codes-drug-pq-example"/>
                        <code value="ASSAY"/>
                        <display value="Assay"/>
                     </coding>
                  </code>
                  <subject>
                     <reference value="Substance/actual-batch-substance-2"/>
                  </subject>
                  <effectiveDateTime value="2023-01-01T12:00:00Z"/>
                  <performer>
                     <reference value="Organization/378fbe5f-5926-3a5c-4c64-5428df877b08"/>
                  </performer>
                  <valueQuantity>
                     <value value="0.118"/>
                     <unit value="% w/w"/>
                     <system value="http://unitsofmeasure.org"/>
                     <code value="%"/>
                  </valueQuantity>
               </Observation>
            </contained>
            <contained>
               <Observation>
                  <id value="LongTerm30C-18m-2-Identification"/>
                  <instantiatesReference>
                     <reference value="ObservationDefinition/Identification"/>
                  </instantiatesReference>
                  <!--<instantiatesCanonical value="http://example-server.com/fhir/ObservationDefinition/6b96124b-1a44-0b6b-6783-d6c49360230b"/>-->
                  <status value="final"/>
                  <code>
                     <coding>
                        <system value="http://hl7.org/fhir/uv/pharm-quality/CodeSystem/cs-local-codes-drug-pq-example"/>
                        <code value="IDT"/>
                        <display value="Identification"/>
                     </coding>
                     <text value="Identification"/>
                  </code>
                  <subject>
                     <reference value="Substance/actual-batch-substance-2"/>
                  </subject>
                  <effectiveDateTime value="2023-01-01T12:00:00Z"/>
                  <performer>
                     <reference value="Organization/378fbe5f-5926-3a5c-4c64-5428df877b08"/>
                  </performer>
                  <valueCodeableConcept>
                     <text value="Complies"/>
                  </valueCodeableConcept>
               </Observation>
            </contained>
            <!-- use a standard extension to say what plan this is being done for. However it doesn't link to the step of that plan
                     that would mean using sub-ActivityDefintions probably -->
            <extension url="http://hl7.org/fhir/StructureDefinition/workflow-triggeredBy">
               <valueReference>
                  <reference value="ActivityDefinition/activityLongTerm30X-18"/>
               </valueReference>
            </extension>
            <status value="final"/>
            <code>
               <text value="Long-term - 30°C/65% RH - 18 months (X)"/>
            </code>
            <subject>
               <reference value="Substance/actual-batch-substance-2"/>
            </subject>
            <effectiveDateTime value="2023-01-01T12:00:00Z"/>
            <performer>
               <reference value="Organization/378fbe5f-5926-3a5c-4c64-5428df877b08"/>
            </performer>
            <specimen>
               <reference value="Specimen/stability18months-2"/>
            </specimen>
            <hasMember>
               <reference value="#LongTerm30C-18m-2-Description"/>
            </hasMember>
            <hasMember>
               <reference value="#LongTerm30C-18m-2-Assay"/>
            </hasMember>
            <hasMember>
               <reference value="#LongTerm30C-18m-2-Impurity1"/>
            </hasMember>
            <hasMember>
               <reference value="#LongTerm30C-18m-2-Impurity2"/>
            </hasMember>
            <hasMember>
               <reference value="#LongTerm30C-18m-2-ImpurityUnspecified"/>
            </hasMember>
            <hasMember>
               <reference value="#LongTerm30C-18m-2-ImpurityTotal"/>
            </hasMember>
            <hasMember>
               <reference value="#LongTerm30C-18m-2-Identification"/>
            </hasMember>
         </Observation>
      </resource>
   </entry>
   <!-- batch 3 -->
   <entry>
      <fullUrl value="urn:uuid:004ed877-7729-834e-3b6b-a2cf4bdb2377"/>
      <resource>
         <Observation>
            <id value="LongTerm30C-18m-3"/>
            <contained>
               <Observation>
                  <id value="LongTerm30C-18m-3-Description"/>
                  <instantiatesReference>
                     <reference value="ObservationDefinition/Description"/>
                  </instantiatesReference>
                  <!--<instantiatesCanonical value="http://example-server.com/fhir/ObservationDefinition/559ffdc3-349b-a4a3-a651-ce2715f08d69"/>-->
                  <status value="final"/>
                  <code>
                     <coding>
                        <system value="http://hl7.org/fhir/uv/pharm-quality/CodeSystem/cs-local-codes-drug-pq-example"/>
                        <code value="DESC"/>
                        <display value="Description"/>
                     </coding>
                     <text value="Description"/>
                  </code>
                  <subject>
                     <reference value="Substance/actual-batch-substance-3"/>
                  </subject>
                  <effectiveDateTime value="2023-01-01T12:00:00Z"/>
                  <performer>
                     <reference value="Organization/378fbe5f-5926-3a5c-4c64-5428df877b08"/>
                  </performer>
                  <valueCodeableConcept>
                     <text value="Complies"/>
                  </valueCodeableConcept>
               </Observation>
            </contained>
            <contained>
               <Observation>
                  <id value="LongTerm30C-18m-3-Impurity1"/>
                  <instantiatesReference>
                     <reference value="ObservationDefinition/Impurities"/>
                  </instantiatesReference>
                  <!--<instantiatesCanonical value="http://example-server.com/fhir/ObservationDefinition/73d9d304-a0b8-31b6-1165-346563b9305e"/>-->
                  <status value="final"/>
                  <code>
                     <coding>
                        <system value="http://hl7.org/fhir/uv/pharm-quality/CodeSystem/cs-local-codes-drug-pq-example"/>
                        <code value="DGP"/>
                        <display value="Degradation Products"/>
                     </coding>
                     <text value="Degradation Products"/>
                  </code>
                  <subject>
                     <reference value="Substance/actual-batch-substance-3"/>
                  </subject>
                  <effectiveDateTime value="2023-01-01T12:00:00Z"/>
                  <performer>
                     <reference value="Organization/378fbe5f-5926-3a5c-4c64-5428df877b08"/>
                  </performer>
                  <valueQuantity>
                     <value value="0.118"/>
                     <unit value="% w/w"/>
                     <system value="http://unitsofmeasure.org"/>
                     <code value="%"/>
                  </valueQuantity>
                  <component>
                     <code>
                        <coding>
                           <system value="http://hl7.org/fhir/uv/pharm-quality/CodeSystem/cs-local-codes-drug-pq-example"/>
                           <code value="IMP"/>
                           <display value="Impurity"/>
                        </coding>
                     </code>
                     <valueCodeableConcept>
                                <!-- could have the code of an impurity substance, or could have an extension to point to it as a resource -->
                        <text value="Impurity"/>
                     </valueCodeableConcept>
                  </component>
               </Observation>
            </contained>
            <contained>
               <Observation>
                  <id value="LongTerm30C-18m-3-Impurity2"/>
                  <instantiatesReference>
                     <reference value="ObservationDefinition/Impurities"/>
                  </instantiatesReference>
                  <!--<instantiatesCanonical value="http://example-server.com/fhir/ObservationDefinition/73d9d304-a0b8-31b6-1165-346563b9305e"/>-->
                  <status value="final"/>
                  <code>
                     <coding>
                        <system value="http://hl7.org/fhir/uv/pharm-quality/CodeSystem/cs-local-codes-drug-pq-example"/>
                        <code value="Impurities"/>
                        <display value="Impurities"/>
                     </coding>
                     <text value="Impurities"/>
                  </code>
                  <subject>
                     <reference value="Substance/actual-batch-substance-3"/>
                  </subject>
                  <effectiveDateTime value="2023-01-01T12:00:00Z"/>
                  <performer>
                     <reference value="Organization/378fbe5f-5926-3a5c-4c64-5428df877b08"/>
                  </performer>
                  <valueQuantity>
                     <value value="0.218"/>
                     <unit value="% w/w"/>
                     <system value="http://unitsofmeasure.org"/>
                     <code value="%"/>
                  </valueQuantity>
                  <component>
                     <code>
                        <coding>
                           <system value="http://hl7.org/fhir/uv/pharm-quality/CodeSystem/cs-local-codes-drug-pq-example"/>
                           <code value="IMP"/>
                           <display value="Impurity"/>
                        </coding>
                     </code>
                     <valueCodeableConcept>
                        <text value="Impurity 2"/>
                     </valueCodeableConcept>
                  </component>
               </Observation>
            </contained>
            <contained>
               <Observation>
                  <id value="LongTerm30C-18m-3-ImpurityUnspecified"/>
                  <instantiatesReference>
                     <reference value="ObservationDefinition/Impurities"/>
                  </instantiatesReference>
                  <!--<instantiatesCanonical value="http://example-server.com/fhir/ObservationDefinition/73d9d304-a0b8-31b6-1165-346563b9305e"/>-->
                  <status value="final"/>
                  <code>
                     <coding>
                        <system value="http://hl7.org/fhir/uv/pharm-quality/CodeSystem/cs-local-codes-drug-pq-example"/>
                        <code value="Impurities"/>
                        <display value="Impurities"/>
                     </coding>
                     <text value="Impurities"/>
                  </code>
                  <subject>
                     <reference value="Substance/actual-batch-substance-3"/>
                  </subject>
                  <effectiveDateTime value="2023-01-01T12:00:00Z"/>
                  <performer>
                     <reference value="Organization/378fbe5f-5926-3a5c-4c64-5428df877b08"/>
                  </performer>
                  <valueQuantity>
                     <value value="0.0518"/>
                     <comparator value="&lt;"/>
                     <unit value="% w/w"/>
                     <system value="http://unitsofmeasure.org"/>
                     <code value="%"/>
                  </valueQuantity>
                  <component>
                     <code>
                        <coding>
                           <system value="http://hl7.org/fhir/uv/pharm-quality/CodeSystem/cs-local-codes-drug-pq-example"/>
                           <code value="IMP"/>
                           <display value="Impurity"/>
                        </coding>
                     </code>
                     <valueCodeableConcept>
                        <text value="Any Unspecified Impurity"/>
                     </valueCodeableConcept>
                  </component>
               </Observation>
            </contained>
            <contained>
               <Observation>
                  <id value="LongTerm30C-18m-3-ImpurityTotal"/>
                  <instantiatesReference>
                     <reference value="ObservationDefinition/Impurities"/>
                  </instantiatesReference>
                  <!--<instantiatesCanonical value="http://example-server.com/fhir/ObservationDefinition/73d9d304-a0b8-31b6-1165-346563b9305e"/>-->
                  <status value="final"/>
                  <code>
                     <coding>
                        <system value="http://hl7.org/fhir/uv/pharm-quality/CodeSystem/cs-local-codes-drug-pq-example"/>
                        <code value="Impurities"/>
                        <display value="Impurities"/>
                     </coding>
                     <text value="Impurities"/>
                  </code>
                  <subject>
                     <reference value="Substance/actual-batch-substance-3"/>
                  </subject>
                  <effectiveDateTime value="2023-01-01T12:00:00Z"/>
                  <performer>
                     <reference value="Organization/378fbe5f-5926-3a5c-4c64-5428df877b08"/>
                  </performer>
                  <valueQuantity>
                     <value value="0.818"/>
                     <unit value="% w/w"/>
                     <system value="http://unitsofmeasure.org"/>
                     <code value="%"/>
                  </valueQuantity>
                  <component>
                     <code>
                        <coding>
                           <system value="http://hl7.org/fhir/uv/pharm-quality/CodeSystem/cs-local-codes-drug-pq-example"/>
                           <code value="IMP"/>
                           <display value="Impurity"/>
                        </coding>
                     </code>
                     <valueCodeableConcept>
                        <text value="Total Impurities"/>
                     </valueCodeableConcept>
                  </component>
               </Observation>
            </contained>
            <contained>
               <Observation>
                  <id value="LongTerm30C-18m-3-Assay"/>
                  <instantiatesReference>
                     <reference value="ObservationDefinition/Assay"/>
                  </instantiatesReference>
                  <!--<instantiatesCanonical value="http://example-server.com/fhir/ObservationDefinition/7943795a-2abe-666f-545f-133e23b97119"/>-->
                  <status value="final"/>
                  <code>
                     <coding>
                        <system value="http://hl7.org/fhir/uv/pharm-quality/CodeSystem/cs-local-codes-drug-pq-example"/>
                        <code value="ASSAY"/>
                        <display value="Assay"/>
                     </coding>
                  </code>
                  <subject>
                     <reference value="Substance/actual-batch-substance-3"/>
                  </subject>
                  <effectiveDateTime value="2023-01-01T12:00:00Z"/>
                  <performer>
                     <reference value="Organization/378fbe5f-5926-3a5c-4c64-5428df877b08"/>
                  </performer>
                  <valueQuantity>
                     <value value="0.118"/>
                     <unit value="% w/w"/>
                     <system value="http://unitsofmeasure.org"/>
                     <code value="%"/>
                  </valueQuantity>
               </Observation>
            </contained>
            <contained>
               <Observation>
                  <id value="LongTerm30C-18m-3-Identification"/>
                  <instantiatesReference>
                     <reference value="ObservationDefinition/Identification"/>
                  </instantiatesReference>
                  <!--<instantiatesCanonical value="http://example-server.com/fhir/ObservationDefinition/6b96124b-1a44-0b6b-6783-d6c49360230b"/>-->
                  <status value="final"/>
                  <code>
                     <coding>
                        <system value="http://hl7.org/fhir/uv/pharm-quality/CodeSystem/cs-local-codes-drug-pq-example"/>
                        <code value="IDT"/>
                        <display value="Identification"/>
                     </coding>
                     <text value="Identification"/>
                  </code>
                  <subject>
                     <reference value="Substance/actual-batch-substance-3"/>
                  </subject>
                  <effectiveDateTime value="2023-01-01T12:00:00Z"/>
                  <performer>
                     <reference value="Organization/378fbe5f-5926-3a5c-4c64-5428df877b08"/>
                  </performer>
                  <valueCodeableConcept>
                     <text value="Complies"/>
                  </valueCodeableConcept>
               </Observation>
            </contained>
            <!-- use a standard extension to say what plan this is being done for. However it doesn't link to the step of that plan
                     that would mean using sub-ActivityDefintions probably -->
            <extension url="http://hl7.org/fhir/StructureDefinition/workflow-triggeredBy">
               <valueReference>
                  <reference value="ActivityDefinition/activityLongTerm30X-18"/>
               </valueReference>
            </extension>
            <status value="final"/>
            <code>
               <text value="Long-term - 30°C/65% RH - 18 months (X)"/>
            </code>
            <subject>
               <reference value="Substance/actual-batch-substance-3"/>
            </subject>
            <effectiveDateTime value="2023-01-01T12:00:00Z"/>
            <performer>
               <reference value="Organization/378fbe5f-5926-3a5c-4c64-5428df877b08"/>
            </performer>
            <specimen>
               <reference value="Specimen/stability18months-3"/>
            </specimen>
            <hasMember>
               <reference value="#LongTerm30C-18m-3-Description"/>
            </hasMember>
            <hasMember>
               <reference value="#LongTerm30C-18m-3-Assay"/>
            </hasMember>
            <hasMember>
               <reference value="#LongTerm30C-18m-3-Impurity1"/>
            </hasMember>
            <hasMember>
               <reference value="#LongTerm30C-18m-3-Impurity2"/>
            </hasMember>
            <hasMember>
               <reference value="#LongTerm30C-18m-3-ImpurityUnspecified"/>
            </hasMember>
            <hasMember>
               <reference value="#LongTerm30C-18m-3-ImpurityTotal"/>
            </hasMember>
            <hasMember>
               <reference value="#LongTerm30C-18m-3-Identification"/>
            </hasMember>
         </Observation>
      </resource>
   </entry>
   <entry>
      <fullUrl value="urn:uuid:b04c9321-069c-4da8-8ed0-86337ea22c30"/>
      <resource>
         <Specimen>
            <id value="acceleratedInitial-3m-1"/>
            <collection>
               <collectedDateTime value="2020-06"/>
            </collection>
            <processing>
               <description value="No storage"/>
            </processing>
            <processing>
               <description value="40°C/75% RH"/>
            </processing>
         </Specimen>
      </resource>
   </entry>
   <entry>
      <fullUrl value="urn:uuid:f958e1e9-6023-4e39-2ffe-a9c8f135a2dd"/>
      <resource>
         <Observation>
            <id value="Accelerated40C-3m"/>
            <contained>
               <Observation>
                  <id value="Accelerated40C-3m-1-Description"/>
                  <instantiatesReference>
                     <reference value="ObservationDefinition/Description"/>
                  </instantiatesReference>
                  <!--<instantiatesCanonical value="http://example-server.com/fhir/ObservationDefinition/559ffdc3-349b-a4a3-a651-ce2715f08d69"/>-->
                  <status value="final"/>
                  <code>
                     <coding>
                        <system value="http://hl7.org/fhir/uv/pharm-quality/CodeSystem/cs-local-codes-drug-pq-example"/>
                        <code value="DESC"/>
                        <display value="Description"/>
                     </coding>
                     <text value="Description"/>
                  </code>
                  <subject>
                     <reference value="Substance/actual-batch-substance"/>
                  </subject>
                  <effectiveDateTime value="2023-01-01T12:00:00Z"/>
                  <performer>
                     <reference value="Organization/378fbe5f-5926-3a5c-4c64-5428df877b08"/>
                  </performer>
                  <valueCodeableConcept>
                     <text value="Doesn't comply"/>
                  </valueCodeableConcept>
               </Observation>
            </contained>
            <contained>
               <Observation>
                  <id value="Accelerated40C-3m-1-Impurity1"/>
                  <instantiatesReference>
                     <reference value="ObservationDefinition/Impurities"/>
                  </instantiatesReference>
                  <!--<instantiatesCanonical value="http://example-server.com/fhir/ObservationDefinition/73d9d304-a0b8-31b6-1165-346563b9305e"/>-->
                  <status value="final"/>
                  <code>
                     <coding>
                        <system value="http://hl7.org/fhir/uv/pharm-quality/CodeSystem/cs-local-codes-drug-pq-example"/>
                        <code value="DGP"/>
                        <display value="Degradation Products"/>
                     </coding>
                     <text value="Degradation Products"/>
                  </code>
                  <subject>
                     <reference value="Substance/actual-batch-substance"/>
                  </subject>
                  <effectiveDateTime value="2023-01-01T12:00:00Z"/>
                  <performer>
                     <reference value="Organization/378fbe5f-5926-3a5c-4c64-5428df877b08"/>
                  </performer>
                  <valueQuantity>
                     <value value="0.113"/>
                     <unit value="% w/w"/>
                     <system value="http://unitsofmeasure.org"/>
                     <code value="%"/>
                  </valueQuantity>
                  <component>
                     <code>
                        <coding>
                           <system value="http://hl7.org/fhir/uv/pharm-quality/CodeSystem/cs-local-codes-drug-pq-example"/>
                           <code value="IMP"/>
                           <display value="Impurity"/>
                        </coding>
                     </code>
                     <valueCodeableConcept>
                                <!-- could have the code of an impurity substance, or could have an extension to point to it as a resource -->
                        <text value="Impurity"/>
                     </valueCodeableConcept>
                  </component>
               </Observation>
            </contained>
            <contained>
               <Observation>
                  <id value="Accelerated40C-3m-1-Impurity2"/>
                  <instantiatesReference>
                     <reference value="ObservationDefinition/Impurities"/>
                  </instantiatesReference>
                  <!--<instantiatesCanonical value="http://example-server.com/fhir/ObservationDefinition/73d9d304-a0b8-31b6-1165-346563b9305e"/>-->
                  <status value="final"/>
                  <code>
                     <coding>
                        <system value="http://hl7.org/fhir/uv/pharm-quality/CodeSystem/cs-local-codes-drug-pq-example"/>
                        <code value="Impurities"/>
                        <display value="Impurities"/>
                     </coding>
                     <text value="Impurities"/>
                  </code>
                  <subject>
                     <reference value="Substance/actual-batch-substance"/>
                  </subject>
                  <effectiveDateTime value="2023-01-01T12:00:00Z"/>
                  <performer>
                     <reference value="Organization/378fbe5f-5926-3a5c-4c64-5428df877b08"/>
                  </performer>
                  <valueQuantity>
                     <value value="0.213"/>
                     <unit value="% w/w"/>
                     <system value="http://unitsofmeasure.org"/>
                     <code value="%"/>
                  </valueQuantity>
                  <component>
                     <code>
                        <coding>
                           <system value="http://hl7.org/fhir/uv/pharm-quality/CodeSystem/cs-local-codes-drug-pq-example"/>
                           <code value="IMP"/>
                           <display value="Impurity"/>
                        </coding>
                     </code>
                     <valueCodeableConcept>
                        <text value="Impurity 2"/>
                     </valueCodeableConcept>
                  </component>
               </Observation>
            </contained>
            <contained>
               <Observation>
                  <id value="Accelerated40C-3m-1-ImpurityUnspecified"/>
                  <instantiatesReference>
                     <reference value="ObservationDefinition/Impurities"/>
                  </instantiatesReference>
                  <!--<instantiatesCanonical value="http://example-server.com/fhir/ObservationDefinition/73d9d304-a0b8-31b6-1165-346563b9305e"/>-->
                  <status value="final"/>
                  <code>
                     <coding>
                        <system value="http://hl7.org/fhir/uv/pharm-quality/CodeSystem/cs-local-codes-drug-pq-example"/>
                        <code value="Impurities"/>
                        <display value="Impurities"/>
                     </coding>
                     <text value="Impurities"/>
                  </code>
                  <subject>
                     <reference value="Substance/actual-batch-substance"/>
                  </subject>
                  <effectiveDateTime value="2023-01-01T12:00:00Z"/>
                  <performer>
                     <reference value="Organization/378fbe5f-5926-3a5c-4c64-5428df877b08"/>
                  </performer>
                  <valueQuantity>
                     <value value="0.0513"/>
                     <comparator value="&lt;"/>
                     <unit value="% w/w"/>
                     <system value="http://unitsofmeasure.org"/>
                     <code value="%"/>
                  </valueQuantity>
                  <component>
                     <code>
                        <coding>
                           <system value="http://hl7.org/fhir/uv/pharm-quality/CodeSystem/cs-local-codes-drug-pq-example"/>
                           <code value="IMP"/>
                           <display value="Impurity"/>
                        </coding>
                     </code>
                     <valueCodeableConcept>
                        <text value="Any Unspecified Impurity"/>
                     </valueCodeableConcept>
                  </component>
               </Observation>
            </contained>
            <contained>
               <Observation>
                  <id value="Accelerated40C-3m-1-ImpurityTotal"/>
                  <instantiatesReference>
                     <reference value="ObservationDefinition/Impurities"/>
                  </instantiatesReference>
                  <!--<instantiatesCanonical value="http://example-server.com/fhir/ObservationDefinition/73d9d304-a0b8-31b6-1165-346563b9305e"/>-->
                  <status value="final"/>
                  <code>
                     <coding>
                        <system value="http://hl7.org/fhir/uv/pharm-quality/CodeSystem/cs-local-codes-drug-pq-example"/>
                        <code value="Impurities"/>
                        <display value="Impurities"/>
                     </coding>
                     <text value="Impurities"/>
                  </code>
                  <subject>
                     <reference value="Substance/actual-batch-substance-3"/>
                  </subject>
                  <effectiveDateTime value="2023-01-01T12:00:00Z"/>
                  <performer>
                     <reference value="Organization/378fbe5f-5926-3a5c-4c64-5428df877b08"/>
                  </performer>
                  <valueQuantity>
                     <value value="0.813"/>
                     <unit value="% w/w"/>
                     <system value="http://unitsofmeasure.org"/>
                     <code value="%"/>
                  </valueQuantity>
                  <component>
                     <code>
                        <coding>
                           <system value="http://hl7.org/fhir/uv/pharm-quality/CodeSystem/cs-local-codes-drug-pq-example"/>
                           <code value="IMP"/>
                           <display value="Impurity"/>
                        </coding>
                     </code>
                     <valueCodeableConcept>
                        <text value="Total Impurities"/>
                     </valueCodeableConcept>
                  </component>
               </Observation>
            </contained>
            <contained>
               <Observation>
                  <id value="Accelerated40C-3m-1-Assay"/>
                  <instantiatesReference>
                     <reference value="ObservationDefinition/Assay"/>
                  </instantiatesReference>
                  <!--<instantiatesCanonical value="http://example-server.com/fhir/ObservationDefinition/7943795a-2abe-666f-545f-133e23b97119"/>-->
                  <status value="final"/>
                  <code>
                     <coding>
                        <system value="http://hl7.org/fhir/uv/pharm-quality/CodeSystem/cs-local-codes-drug-pq-example"/>
                        <code value="ASSAY"/>
                        <display value="Assay"/>
                     </coding>
                  </code>
                  <subject>
                     <reference value="Substance/actual-batch-substance-3"/>
                  </subject>
                  <effectiveDateTime value="2023-01-01T12:00:00Z"/>
                  <performer>
                     <reference value="Organization/378fbe5f-5926-3a5c-4c64-5428df877b08"/>
                  </performer>
                  <valueQuantity>
                     <value value="0.113"/>
                     <unit value="% w/w"/>
                     <system value="http://unitsofmeasure.org"/>
                     <code value="%"/>
                  </valueQuantity>
               </Observation>
            </contained>
            <contained>
               <Observation>
                  <id value="Accelerated40C-3m-1-Identification"/>
                  <instantiatesReference>
                     <reference value="ObservationDefinition/Identification"/>
                  </instantiatesReference>
                  <!--<instantiatesCanonical value="http://example-server.com/fhir/ObservationDefinition/6b96124b-1a44-0b6b-6783-d6c49360230b"/>-->
                  <status value="final"/>
                  <code>
                     <coding>
                        <system value="http://hl7.org/fhir/uv/pharm-quality/CodeSystem/cs-local-codes-drug-pq-example"/>
                        <code value="IDT"/>
                        <display value="Identification"/>
                     </coding>
                     <text value="Identification"/>
                  </code>
                  <subject>
                     <reference value="Substance/actual-batch-substance-3"/>
                  </subject>
                  <effectiveDateTime value="2023-01-01T12:00:00Z"/>
                  <performer>
                     <reference value="Organization/378fbe5f-5926-3a5c-4c64-5428df877b08"/>
                  </performer>
                  <valueCodeableConcept>
                     <text value="Complies"/>
                  </valueCodeableConcept>
               </Observation>
            </contained>
            <!-- use a standard extension to say what plan this is being done for. However it doesn't link to the step of that plan
                     that would mean using sub-ActivityDefintions probably -->
            <extension url="http://hl7.org/fhir/StructureDefinition/workflow-triggeredBy">
               <valueReference>
                  <reference value="ActivityDefinition/activityAccelerated40X-3"/>
               </valueReference>
            </extension>
            <status value="final"/>
            <code>
               <text value="Accelerated - 40°C/67% RH - 3 months (X)"/>
            </code>
            <subject>
               <reference value="Substance/actual-batch-substance"/>
            </subject>
            <effectiveDateTime value="2023-01-01T12:00:00Z"/>
            <performer>
               <reference value="Organization/378fbe5f-5926-3a5c-4c64-5428df877b08"/>
            </performer>
            <specimen>
               <reference value="Specimen/acceleratedInitial-3m-1"/>
            </specimen>
            <hasMember>
               <reference value="#Accelerated40C-3m-1-Description"/>
            </hasMember>
            <hasMember>
               <reference value="#Accelerated40C-3m-1-Assay"/>
            </hasMember>
            <hasMember>
               <reference value="#Accelerated40C-3m-1-Impurity1"/>
            </hasMember>
            <hasMember>
               <reference value="#Accelerated40C-3m-1-Impurity2"/>
            </hasMember>
            <hasMember>
               <reference value="#Accelerated40C-3m-1-ImpurityUnspecified"/>
            </hasMember>
            <hasMember>
               <reference value="#Accelerated40C-3m-1-ImpurityTotal"/>
            </hasMember>
            <hasMember>
               <reference value="#Accelerated40C-3m-1-Identification"/>
            </hasMember>
         </Observation>
      </resource>
   </entry>
   <!-- Section 4.1 - Manufacturer -->
   <entry>
      <fullUrl value="urn:uuid:62c1b1b4-8d15-26d2-57f9-25a2f60b6181"/>
      <resource>
         <Organization>
            <id value="manufacturer"/>
            <identifier>
                    <!-- FDA establishment identifier -->
               <system value="urn:oid:2.16.840.1.113883.4.82"/>
               <value value="3003040516"/>
            </identifier>
            <active value="true"/>
            <type>
               <coding>
                  <system value="http://terminology.hl7.org/CodeSystem/pharmaceutical-organization-type"/>
                  <code value="drug-substance-manufacture"/>
                  <display value="Drug Substance Manufacture"/>
               </coding>
            </type>
            <name value="AAA Molybdenum Products, Inc."/>
            <contact>
               <address>
                  <line value="7233 W 116th Pl"/>
                  <line value="Ste C"/>
                  <city value="Broomfield"/>
                  <state value="Colorado"/>
                  <postalCode value="80020"/>
                  <country value="USA"/>
               </address>
            </contact>
         </Organization>
      </resource>
   </entry>
   <!-- Section 4.2 - Testing Site -->
   <entry>
      <fullUrl value="urn:uuid:6049d921-9935-90b7-4efc-894a66483c00"/>
      <resource>
         <Organization>
            <id value="tester"/>
            <identifier>
               <system value="urn:oid:2.16.840.1.113883.4.82"/>
               <value value="3007270600"/>
               
            </identifier>
            <active value="true"/>
            <type>
               <coding>
                  <system value="http://terminology.hl7.org/CodeSystem/pharmaceutical-organization-type"/>
                  <code value="analytical-testing-stability"/>
                  <display value="Analytical Testing - Stability"/>
               </coding>
            </type>
            <name value="Advanced Analytical Testing Laboratories Inc."/>
            <contact>
               <address>
                  <line value="30 Silverline Drive"/>
                  <city value="North Brunswick"/>
                  <state value="New Jersey"/>
                  <postalCode value="08902"/>
                  <country value="USA"/>
               </address>
            </contact>
         </Organization>
      </resource>
   </entry>
   <entry>
      <fullUrl value="urn:uuid:2e3a85b5-790a-a108-3627-edf0ec6f1210"/>
      <resource>
         <SubstanceDefinition>
            <id value="substance1"/>
            <identifier>
               <system value="http://example.company.org/companySubstanceIdentifier"/>
               <value value="4444455555"/>
            </identifier>
            <manufacturer>
               <extension url="http://hl7.org/fhir/uv/pharm-quality/StructureDefinition/Extension-site-utilization-pq">
                  <valueCoding>
                     <system value="http://terminology.hl7.org/CodeSystem/product-site-utilization-type"/>
                     <code value="Release stability"/>
                     <display value="Release stability"/>
                  </valueCoding>
               </extension>
               <reference value="Organization/manufacturer"/>
            </manufacturer>
            <name>
               <name value="Stelbatolol"/>
            </name>
         </SubstanceDefinition>
      </resource>
   </entry>
   <entry>
      <fullUrl value="urn:uuid:e2359a4e-3091-23f8-2242-87e701830d55"/>
      <resource>
         <Organization>
            <id value="substance-manufacturer"/>
            <identifier>
                    <!-- FDA establishment identifier -->
               <system value="urn:oid:2.16.840.1.113883.4.82"/>
               <value value="3003040516"/>
            </identifier>
            <active value="true"/>
            <type>
               <coding>
                  <system value="http://terminology.hl7.org/CodeSystem/pharmaceutical-organization-type"/>
                  <code value="drug-substance-manufacture"/>
                  <display value="Drug Substance Manufacture"/>
               </coding>
            </type>
            <name value="AAA Molybdenum Products, Inc."/>
            <contact>
               <address>
                  <line value="7233 W 116th Pl"/>
                  <line value="Ste C"/>
                  <city value="Broomfield"/>
                  <state value="Colorado"/>
                  <postalCode value="80020"/>
                  <country value="USA"/>
               </address>
            </contact>
         </Organization>
      </resource>
   </entry>
   <entry>
      <fullUrl value="urn:uuid:378fbe5f-5926-3a5c-4c64-5428df877b08"/>
      <resource>
         <Organization>
                <!--testing lab-->
            <id value="378fbe5f-5926-3a5c-4c64-5428df877b08"/>
            <identifier>
               <system value="urn:oid:2.16.840.1.113883.4.82"/>
               <value value="3007270600"/>
            </identifier>
            <active value="true"/>
            <type>
               <coding>
                  <system value="http://terminology.hl7.org/CodeSystem/pharmaceutical-organization-type"/>
                  <code value="analytical-testing-stability"/>
                  <display value="Analytical Testing - Stability"/>
               </coding>
            </type>
            <name value="Testing Lab"/>
         </Organization>
      </resource>
   </entry>
   <entry>
      <fullUrl value="urn:uuid:a3fdc23b-6c16-2e65-481e-3fc895b37b87"/>
      <resource>
         <Substance>
            <id value="actual-batch-substance"/>
            <extension url="http://hl7.org/fhir/StructureDefinition/medication-manufacturingBatch">
               <extension url="manufacturingDate">
                  <valueDateTime value="2020-01"/>
               </extension>
               <extension url="batchQuantity">
                  <valueQuantity>
                     <value value="120"/>
                     <unit value="kg"/>
                  </valueQuantity>
               </extension>
               <extension url="batchUtilization">
                  <valueCodeableConcept>
                     <coding>
                        <system value="http://ncicb.nci.nih.gov/xml/owl/EVS/Thesaurus.owl"/>
                        <code value="C133990"/>
                        <display value="Commercial"/>
                        <!-- could also be C185328 Stability Study? -->
                     </coding>
                     <text value="Production"/>
                  </valueCodeableConcept>
               </extension>
               <extension url="assignedManufacturer">
                  <valueReference>
                     <reference value="Organization/substance-manufacturer"/>
                  </valueReference>
               </extension>
               <extension url="container">
                  <extension url="type">
                     <valueCodeableConcept>
                        <text value="packaged in LDPE bags within HDPE drums"/>
                     </valueCodeableConcept>
                  </extension>
               </extension>
            </extension>
            <!-- local extensions -->
            <extension url="http://hl7.org/fhir/uv/pharm-quality/StructureDefinition/Extension-batch-release-date-pq">
               <valueDateTime value="2019-09-08"/>
            </extension>
            <extension url="http://hl7.org/fhir/uv/pharm-quality/StructureDefinition/Extension-batch-retest-date-pq">
               <valueDateTime value="2022-09-08"/>
            </extension>
            <extension url="http://hl7.org/fhir/uv/pharm-quality/StructureDefinition/Extension-actual-yield-pq">
               <valueQuantity>
                  <value value="4.8"/>
                  <unit value="kg"/>
               </valueQuantity>
            </extension>
            <identifier>
               <value value="CAT1"/>
            </identifier>
            <instance value="true"/>
            <code>
               <reference>
                  <reference value="SubstanceDefinition/substance1"/>
               </reference>
            </code>
         </Substance>
      </resource>
   </entry>
   <entry>
      <fullUrl value="urn:uuid:cbcecab6-374c-396f-29be-877da7285e8d"/>
      <resource>
         <Substance>
            <id value="actual-batch-substance-2"/>
            <extension url="http://hl7.org/fhir/StructureDefinition/medication-manufacturingBatch">
               <extension url="manufacturingDate">
                  <valueDateTime value="2020-02"/>
               </extension>
               <extension url="batchQuantity">
                  <valueQuantity>
                     <value value="120"/>
                     <unit value="kg"/>
                  </valueQuantity>
               </extension>
               <extension url="batchUtilization">
                  <valueCodeableConcept>
                     <coding>
                        <system value="http://ncicb.nci.nih.gov/xml/owl/EVS/Thesaurus.owl"/>
                        <code value="C133990"/>
                        <display value="Commercial"/>
                        <!-- could also be C185328 Stability Study? -->
                     </coding>
                     <text value="Production"/>
                  </valueCodeableConcept>
               </extension>
               <extension url="assignedManufacturer">
                  <valueReference>
                     <reference value="Organization/substance-manufacturer"/>
                  </valueReference>
               </extension>
            </extension>
            <!-- local extension -->
            <extension url="http://hl7.org/fhir/uv/pharm-quality/StructureDefinition/Extension-batch-release-date-pq">
               <valueDateTime value="2019-09-08"/>
            </extension>
            <extension url="http://hl7.org/fhir/uv/pharm-quality/StructureDefinition/Extension-batch-retest-date-pq">
               <valueDateTime value="2022-09-08"/>
            </extension>
            <extension url="http://hl7.org/fhir/uv/pharm-quality/StructureDefinition/Extension-actual-yield-pq">
               <valueQuantity>
                  <value value="4.8"/>
                  <unit value="kg"/>
               </valueQuantity>
            </extension>
            <identifier>
               <value value="CAT2"/>
            </identifier>
            <instance value="true"/>
            <code>
               <reference>
                  <reference value="SubstanceDefinition/substance1"/>
               </reference>
            </code>
         </Substance>
      </resource>
   </entry>
   <entry>
      <fullUrl value="urn:uuid:ae1f3b4c-4f14-1460-6903-7260959ea2cd"/>
      <resource>
         <Substance>
            <id value="actual-batch-substance-3"/>
            <extension url="http://hl7.org/fhir/StructureDefinition/medication-manufacturingBatch">
               <extension url="manufacturingDate">
                  <valueDateTime value="2020-03"/>
               </extension>
               <extension url="batchQuantity">
                  <valueQuantity>
                     <value value="120"/>
                     <unit value="kg"/>
                  </valueQuantity>
               </extension>
               <extension url="batchUtilization">
                  <valueCodeableConcept>
                     <coding>
                        <system value="http://ncicb.nci.nih.gov/xml/owl/EVS/Thesaurus.owl"/>
                        <code value="C133990"/>
                        <display value="Commercial"/>
                        <!-- could also be C185328 Stability Study? -->
                     </coding>
                     <text value="Production"/>
                  </valueCodeableConcept>
               </extension>
               <extension url="assignedManufacturer">
                  <valueReference>
                     <reference value="Organization/substance-manufacturer"/>
                  </valueReference>
               </extension>
            </extension>
            <!-- local extensions -->
            <extension url="http://hl7.org/fhir/uv/pharm-quality/StructureDefinition/Extension-batch-release-date-pq">
               <valueDateTime value="2019-09-08"/>
            </extension>
            <extension url="http://hl7.org/fhir/uv/pharm-quality/StructureDefinition/Extension-batch-retest-date-pq">
               <valueDateTime value="2022-09-08"/>
            </extension>
            <extension url="http://hl7.org/fhir/uv/pharm-quality/StructureDefinition/Extension-actual-yield-pq">
               <valueQuantity>
                  <value value="4.8"/>
                  <unit value="kg"/>
               </valueQuantity>
            </extension>
            <identifier>
               <value value="CAT3"/>
            </identifier>
            <instance value="true"/>
            <code>
               <reference>
                  <reference value="SubstanceDefinition/substance1"/>
               </reference>
            </code>
         </Substance>
      </resource>
   </entry>
</Bundle>