<?xml version="1.0" encoding="UTF-8"?><!-- Product Stability Study -->
<Bundle xmlns="http://hl7.org/fhir">
   <id value="bundle-drug-stability-pq-ex1-prod"/>
   <meta>
      <profile value="http://hl7.org/fhir/uv/pharm-quality/StructureDefinition/Bundle-drug-stability-pq"/>
   </meta>
   <type value="collection"/>
   <!-- Section 11 - Stability Study - Results -->
   <entry>
      <fullUrl value="urn:uuid:6f4a3311-92c5-2b4a-533e-76341e414c63"/>
      <resource>
         <DiagnosticReport>
            <id value="diagnosticreport-analysis-drug-pq-stability-prod"/>
            <meta>
               <profile value="http://hl7.org/fhir/uv/pharm-quality/StructureDefinition/DiagnosticReport-analysis-drug-pq"/>
            </meta>
            <extension url="http://hl7.org/fhir/StructureDefinition/workflow-triggeredBy">
               <valueReference>
                  <reference value="PlanDefinition/plandefinition-drug-pq-ex5-stability-study-protocol"/>
               </valueReference>
            </extension>
            <extension url="http://hl7.org/fhir/uv/pharm-quality/StructureDefinition/Extension-statistical-model-pq">
               <valueCodeableConcept>
                         <!-- Want to use studyDesign, but problem is that this is CodeableConcept, which allows text. However when you use text, you then
                            have no place to put a context. Ideally this would be a code/code pair.
                            Code says "statistical model", code (or text) then says what it is -->
                  <text value="information about statistical model utilized to interpret stability study results"/>
               </valueCodeableConcept>
            </extension>
            <extension url="http://hl7.org/fhir/uv/pharm-quality/StructureDefinition/Extension-container-orientation-pq">
               <valueCodeableConcept>
                  <coding>
                     <system value="http://hl7.org/fhir/uv/pharm-quality/CodeSystem/cs-containerOrientation-local-pq"/>
                     <code value="horizontal"/>
                     <display value="horizontal"/>
                  </coding>
                  <!-- Considered ObservatioDefinition.usageContext -->
                  <text value="Horizontal"/>
               </valueCodeableConcept>
            </extension>
            <identifier>
               <system value="https://eudract.europa.eu/example/identifier"/>
               <value value="ABC1234"/>
            </identifier>
            <status value="final"/>
            <code>
               <coding>
                  <system value="http://hl7.org/fhir/uv/pharm-quality/CodeSystem/cs-reportType-local-pq"/>
                  <code value="Stability Study Report - 18 months"/>
                  <display value="Stability Study Report - 18 months"/>
               </coding>
            </code>
            <effectiveDateTime value="2020-12"> <!-- start of stability test -->
               <extension url="http://hl7.org/fhir/uv/pharm-quality/StructureDefinition/Extension-time-point-description-pq">
                  <valueCodeableConcept>
                     <coding>
                        <system value="http://hl7.org/fhir/uv/pharm-quality/CodeSystem/cs-timePointDescription-local-pq"/>
                        <code value="Delayed Start Code"/>
                        <display value="Delayed Start Code"/>
                     </coding>
                     <text value="Refrigerated delayed testing"/>
                  </valueCodeableConcept>
               </extension>
            </effectiveDateTime>
            <performer>
               <reference value="Organization/tester"/>
            </performer>
            <result>
               <reference value="Observation/observation-test-result-longterm25c-initial-1"/>
            </result>
            <result>
               <reference value="Observation/LongTerm25C-initial-2"/>
            </result>
            <result>
               <reference value="Observation/LongTerm25C-initial-3"/>
            </result>
            <!-- skipping middle months -->
            <result>
               <reference value="Observation/LongTerm25C-18m-1"/>
            </result>
            <result>
               <reference value="Observation/LongTerm25C-18m-2"/>
            </result>
            <result>
               <reference value="Observation/LongTerm25C-18m-3"/>
            </result>
            <!-- Accelerated -->
            <result>
               <reference value="Observation/Accelerated40C-3-1"/>
            </result>
            <!-- skipping rest of Accelerated -->
            <conclusion value="The samples have been assessed and the conclusion is that the shelf life can be 18 months."/>
         </DiagnosticReport>
      </resource>
   </entry>
   <entry>
      <fullUrl value="urn:uuid:c96cb248-1408-79fc-1f47-b17a6b2e4b54"/>
      <resource>
            
            <!-- Section 11 - Stability Study - Protocol -->
         <PlanDefinition>
            <id value="plandefinition-drug-pq-ex5-stability-study-protocol"/>
            <meta>
               <profile value="http://hl7.org/fhir/uv/pharm-quality/StructureDefinition/PlanDefinition-drug-pq"/>
            </meta>
            <url value="http://example-server.com/fhir/PlanDefinition/c96cb248-1408-79fc-1f47-b17a6b2e4b54"/>
            <title value="Stability Monitoring Program"/>
            <!--            Added type (8/22/2023)-->
            <type>
               <coding>
                  <system value="http://example.org/fhir/code/planType"/>
                  <code value="1244588"/>
                  <display value="Stability Study Protocol"/>
               </coding>
            </type>
            <status value="active"/>
            <subjectReference>
               <reference value="MedicinalProductDefinition/medicinalproductdefinition-drug-product-pq-ex1"/>
            </subjectReference>
            <description value="Narrative description of Stability Study"/>
            <action> <!-- this is then entire thing -->
               <title value="Stability Test Protocol for Long-term and Accelerated Storage of Stelbat Tablets, 20 mg"/>
               <action>
                  <title value="Long-Term"/>
                  <description value="25°C/60% RH"/>
                  <action> <!-- 0 months -->
                     <title value="Initial"/>
                     <timingTiming>
                        <repeat>
                           <boundsRange>
                              <low>
                                 <value value="0"/>
                                 <unit value="months"/>
                                 <system value="http://unitsofmeasure.org"/>
                                 <code value="mo"/>
                              </low>
                              <high>
                                 <value value="0"/>
                                 <unit value="months"/>
                                 <system value="http://unitsofmeasure.org"/>
                                 <code value="mo"/>
                              </high>
                           </boundsRange>
                           <frequency value="1"/>
                        </repeat>
                     </timingTiming>
                     <action> <!-- the categories to do at this step -->
                        <title value="XYZ"/>
                        <!-- Long term -->
                        <definitionCanonical value="ActivityDefinition/activitydefinition-test-drug-pq-ex1"/>
                     </action>
                  </action>
                  <!-- 3 months -->
                  
                  <action>
                     <title value="3"/>
                     <timingTiming>
                        <repeat>
                           <boundsRange>
                              <low>
                                 <value value="3"/>
                                 <unit value="months"/>
                                 <system value="http://unitsofmeasure.org"/>
                                 <code value="mo"/>
                              </low>
                              <high>
                                 <value value="3"/>
                                 <unit value="months"/>
                                 <system value="http://unitsofmeasure.org"/>
                                 <code value="mo"/>
                              </high>
                           </boundsRange>
                           <frequency value="1"/>
                        </repeat>
                     </timingTiming>
                     <action>
                        <title value="X"/>
                        <definitionCanonical value="ActivityDefinition/activitydefinition-stability-test-dxpq-ex1"/>
                     </action>
                  </action>
                  <!-- 6 months -->
                  <action>
                     <title value="6"/>
                     <timingTiming>
                        <repeat>
                           <boundsRange>
                              <low>
                                 <value value="6"/>
                                 <unit value="months"/>
                                 <system value="http://unitsofmeasure.org"/>
                                 <code value="mo"/>
                              </low>
                              <high>
                                 <value value="6"/>
                                 <unit value="months"/>
                                 <system value="http://unitsofmeasure.org"/>
                                 <code value="mo"/>
                              </high>
                           </boundsRange>
                           <frequency value="1"/>
                        </repeat>
                     </timingTiming>
                     <action>
                        <title value="X"/>
                        <definitionCanonical value="ActivityDefinition/activityLongTerm25X-6"/>
                     </action>
                  </action>
                  <!-- 9 months -->
                  <action>
                     <title value="9"/>
                     <timingTiming>
                        <repeat>
                           <boundsRange>
                              <low>
                                 <value value="9"/>
                                 <unit value="months"/>
                                 <system value="http://unitsofmeasure.org"/>
                                 <code value="mo"/>
                              </low>
                              <high>
                                 <value value="9"/>
                                 <unit value="months"/>
                                 <system value="http://unitsofmeasure.org"/>
                                 <code value="mo"/>
                              </high>
                           </boundsRange>
                           <frequency value="1"/>
                        </repeat>
                     </timingTiming>
                     <action>
                        <title value="X"/>
                        <definitionCanonical value="ActivityDefinition/activityLongTerm25X-9"/>
                     </action>
                  </action>
                  <!-- 12 months -->
                  <action>
                     <title value="12"/>
                     <timingTiming>
                        <repeat>
                           <boundsRange>
                              <low>
                                 <value value="12"/>
                                 <unit value="months"/>
                                 <system value="http://unitsofmeasure.org"/>
                                 <code value="mo"/>
                              </low>
                              <high>
                                 <value value="12"/>
                                 <unit value="months"/>
                                 <system value="http://unitsofmeasure.org"/>
                                 <code value="mo"/>
                              </high>
                           </boundsRange>
                           <frequency value="1"/>
                        </repeat>
                     </timingTiming>
                     <action>
                        <title value="XY"/>
                        <definitionCanonical value="ActivityDefinition/activityLongTerm25XY-12"/>
                     </action>
                  </action>
                  <!-- 18 months -->
                  <action>
                     <title value="18"/>
                     <timingTiming>
                        <repeat>
                           <boundsRange>
                              <low>
                                 <value value="18"/>
                                 <unit value="months"/>
                                 <system value="http://unitsofmeasure.org"/>
                                 <code value="mo"/>
                              </low>
                              <high>
                                 <value value="18"/>
                                 <unit value="months"/>
                                 <system value="http://unitsofmeasure.org"/>
                                 <code value="mo"/>
                              </high>
                           </boundsRange>
                           <frequency value="1"/>
                        </repeat>
                     </timingTiming>
                     <action>
                        <title value="XY"/>
                        <definitionCanonical value="ActivityDefinition/activityLongTerm25XY-18"/>
                     </action>
                  </action>
                  <!-- 24 months -->
                  <action>
                     <title value="24"/>
                     <timingTiming>
                        <repeat>
                           <boundsRange>
                              <low>
                                 <value value="24"/>
                                 <unit value="months"/>
                                 <system value="http://unitsofmeasure.org"/>
                                 <code value="mo"/>
                              </low>
                              <high>
                                 <value value="24"/>
                                 <unit value="months"/>
                                 <system value="http://unitsofmeasure.org"/>
                                 <code value="mo"/>
                              </high>
                           </boundsRange>
                           <frequency value="1"/>
                        </repeat>
                     </timingTiming>
                     <action>
                        <title value="XY"/>
                        <definitionCanonical value="ActivityDefinition/activityLongTerm25XY-24"/>
                     </action>
                  </action>
               </action>
               <!-- end of long term -->
               <!-- 0 months is first one - but results for this are not needed, because and zero months is the same for both long term and accelerated -->
               <action>
                  <title value="Accelerated"/>
                  <description value="40°C/75% RH"/>
                  <action>
                     <title value="Initial"/>
                     <timingTiming>
                        <repeat>
                           <boundsRange>
                              <low>
                                 <value value="0"/>
                                 <unit value="months"/>
                                 <system value="http://unitsofmeasure.org"/>
                                 <code value="mo"/>
                              </low>
                              <high>
                                 <value value="0"/>
                                 <unit value="months"/>
                                 <system value="http://unitsofmeasure.org"/>
                                 <code value="mo"/>
                              </high>
                           </boundsRange>
                           <frequency value="1"/>
                        </repeat>
                     </timingTiming>
                     <action>
                        <title value="XYZ"/>
                        <definitionCanonical value="ActivityDefinition/activityAccelerated40XYZ-Initial"/>
                     </action>
                  </action>
                  <action>
                     <title value="3"/>
                     <timingTiming>
                        <repeat>
                           <boundsRange>
                              <low>
                                 <value value="3"/>
                                 <unit value="months"/>
                                 <system value="http://unitsofmeasure.org"/>
                                 <code value="mo"/>
                              </low>
                              <high>
                                 <value value="3"/>
                                 <unit value="months"/>
                                 <system value="http://unitsofmeasure.org"/>
                                 <code value="mo"/>
                              </high>
                           </boundsRange>
                           <frequency value="1"/>
                        </repeat>
                     </timingTiming>
                     <action>
                        <title value="X"/>
                        <definitionCanonical value="ActivityDefinition/activityAccelerated40X-3"/>
                     </action>
                  </action>
                  <action>
                     <title value="6"/>
                     <timingTiming>
                        <repeat>
                           <boundsRange>
                              <low>
                                 <value value="6"/>
                                 <unit value="months"/>
                                 <system value="http://unitsofmeasure.org"/>
                                 <code value="mo"/>
                              </low>
                              <high>
                                 <value value="6"/>
                                 <unit value="months"/>
                                 <system value="http://unitsofmeasure.org"/>
                                 <code value="mo"/>
                              </high>
                           </boundsRange>
                           <frequency value="1"/>
                        </repeat>
                     </timingTiming>
                     <action>
                        <title value="X"/>
                        <definitionCanonical value="ActivityDefinition/activityAccelerated40X-6"/>
                     </action>
                  </action>
                  <action>
                     <title value="9"/>
                     <timingTiming>
                        <repeat>
                           <boundsRange>
                              <low>
                                 <value value="9"/>
                                 <unit value="months"/>
                                 <system value="http://unitsofmeasure.org"/>
                                 <code value="mo"/>
                              </low>
                              <high>
                                 <value value="9"/>
                                 <unit value="months"/>
                                 <system value="http://unitsofmeasure.org"/>
                                 <code value="mo"/>
                              </high>
                           </boundsRange>
                           <frequency value="1"/>
                        </repeat>
                     </timingTiming>
                     <action>
                        <title value="-"/>
                     </action>
                  </action>
                  <action>
                     <title value="12"/>
                     <timingTiming>
                        <repeat>
                           <boundsRange>
                              <low>
                                 <value value="12"/>
                                 <unit value="months"/>
                                 <system value="http://unitsofmeasure.org"/>
                                 <code value="mo"/>
                              </low>
                              <high>
                                 <value value="12"/>
                                 <unit value="months"/>
                                 <system value="http://unitsofmeasure.org"/>
                                 <code value="mo"/>
                              </high>
                           </boundsRange>
                           <frequency value="1"/>
                        </repeat>
                     </timingTiming>
                     <action>
                        <title value="-"/>
                     </action>
                  </action>
                  <action>
                     <title value="18"/>
                     <timingTiming>
                        <repeat>
                           <boundsRange>
                              <low>
                                 <value value="18"/>
                                 <unit value="months"/>
                                 <system value="http://unitsofmeasure.org"/>
                                 <code value="mo"/>
                              </low>
                              <high>
                                 <value value="18"/>
                                 <unit value="months"/>
                                 <system value="http://unitsofmeasure.org"/>
                                 <code value="mo"/>
                              </high>
                           </boundsRange>
                           <frequency value="1"/>
                        </repeat>
                     </timingTiming>
                     <action>
                        <title value="-"/>
                     </action>
                  </action>
                  <action>
                     <title value="24"/>
                     <timingTiming>
                        <repeat>
                           <boundsRange>
                              <low>
                                 <value value="24"/>
                                 <unit value="months"/>
                                 <system value="http://unitsofmeasure.org"/>
                                 <code value="mo"/>
                              </low>
                              <high>
                                 <value value="24"/>
                                 <unit value="months"/>
                                 <system value="http://unitsofmeasure.org"/>
                                 <code value="mo"/>
                              </high>
                           </boundsRange>
                           <frequency value="1"/>
                        </repeat>
                     </timingTiming>
                     <action>
                        <title value="-"/>
                     </action>
                  </action>
               </action>
            </action>
            <!-- end of accelerated -->
         </PlanDefinition>
      </resource>
   </entry>
   <!-- Long term tests -->
   <entry>
      <fullUrl value="urn:uuid:3a0cde98-4a73-6d67-1dfc-08e3fc9646a2"/>
      <resource>
         <SpecimenDefinition>
            <id value="specimendefinition-drug-pq-ex1"/>
            <meta>
               <profile value="http://hl7.org/fhir/uv/pharm-quality/StructureDefinition/SpecimenDefinition-drug-pq"/>
            </meta>
            <url value="http://example-server.com/fhir/SpecimenDefinition/3a0cde98-4a73-6d67-1dfc-08e3fc9646a2"/>
            <status value="active"/>
            <typeTested>
               <preference value="preferred"/>
               <handling>
                  <instruction value="25°C/60% RH"/>
               </handling>
            </typeTested>
         </SpecimenDefinition>
      </resource>
   </entry>
   <entry>
      <fullUrl value="urn:uuid:610ca25c-6126-6117-8d4d-9458ccc33ce2"/>
      <resource>
         <ActivityDefinition>
            <id value="activitydefinition-stability-test-dxpq-ex1"/>
            <meta>
               <profile value="http://hl7.org/fhir/uv/pharm-quality/StructureDefinition/ActivityDefinition-test-drug-pq"/>
            </meta>
            <url value="http://example-server.com/fhir/ActivityDefinition/610ca25c-6126-6117-8d4d-9458ccc33ce2"/>
            <title value="Long-term - 25°C/60% RH - X"/>
            <status value="active"/>
            <!-- changed here to not have url in front -->
            <observationRequirement value="ObservationDefinition/longTerm25X"/>
         </ActivityDefinition>
      </resource>
   </entry>
   <entry>
      <fullUrl value="urn:uuid:d99c1b63-2d32-4887-8157-525cc8ae4732"/>
      <resource>
         <ActivityDefinition>
            <id value="activityLongTerm25X-6"/>
            <meta>
               <profile value="http://hl7.org/fhir/uv/pharm-quality/StructureDefinition/ActivityDefinition-test-drug-pq"/>
            </meta>
            <url value="http://example-server.com/fhir/ActivityDefinition/d99c1b63-2d32-4887-8157-525cc8ae4732"/>
            <title value="Long-term - 25°C/60% RH - X"/>
            <status value="active"/>
            <observationRequirement value="ObservationDefinition/longTerm25X"/>
         </ActivityDefinition>
      </resource>
   </entry>
   <entry>
      <fullUrl value="urn:uuid:38704856-0acf-95f0-000f-a933b6862fa0"/>
      <resource>
         <ActivityDefinition>
            <id value="activityLongTerm25X-9"/>
            <meta>
               <profile value="http://hl7.org/fhir/uv/pharm-quality/StructureDefinition/ActivityDefinition-test-drug-pq"/>
            </meta>
            <url value="http://example-server.com/fhir/ActivityDefinition/38704856-0acf-95f0-000f-a933b6862fa0"/>
            <title value="Long-term - 25°C/60% RH - X"/>
            <status value="active"/>
            <observationRequirement value="ObservationDefinition/longTerm25X"/>
         </ActivityDefinition>
      </resource>
   </entry>
   <entry>
      <fullUrl value="urn:uuid:4bfe1ee8-91ed-5c1b-3045-c749bb9d1d90"/>
      <resource>
         <ActivityDefinition>
            <id value="activitydefinition-test-drug-pq-ex1"/>
            <meta>
               <profile value="http://hl7.org/fhir/uv/pharm-quality/StructureDefinition/ActivityDefinition-test-drug-pq"/>
            </meta>
            <url value="http://example-server.com/fhir/ActivityDefinition/4bfe1ee8-91ed-5c1b-3045-c749bb9d1d90"/>
            <title value="Long-term - 25°C/60% RH - XYZ"/>
            <status value="active"/>
            <observationRequirement value="ObservationDefinition/longTerm25X"/>
            <observationRequirement value="ObservationDefinition/longTerm25Y"/>
            <observationRequirement value="ObservationDefinition/longTerm25Z"/>
         </ActivityDefinition>
      </resource>
   </entry>
   <entry>
      <fullUrl value="urn:uuid:f19a68b0-4ba1-7288-635e-12783035935b"/>
      <resource>
         <ActivityDefinition>
            <id value="activityLongTerm25XY-12"/>
            <meta>
               <profile value="http://hl7.org/fhir/uv/pharm-quality/StructureDefinition/ActivityDefinition-test-drug-pq"/>
            </meta>
            <url value="http://example-server.com/fhir/ActivityDefinition/f19a68b0-4ba1-7288-635e-12783035935b"/>
            <title value="Long-term - 25°C/60% RH - XY"/>
            <status value="active"/>
            <observationRequirement value="ObservationDefinition/longTerm25X"/>
            <observationRequirement value="ObservationDefinition/longTerm25Y"/>
         </ActivityDefinition>
      </resource>
   </entry>
   <entry>
      <fullUrl value="urn:uuid:ce2df6ab-5087-435c-35cb-a84572e756a2"/>
      <resource>
         <ActivityDefinition>
            <id value="activityLongTerm25XY-18"/>
            <meta>
               <profile value="http://hl7.org/fhir/uv/pharm-quality/StructureDefinition/ActivityDefinition-test-drug-pq"/>
            </meta>
            <url value="http://example-server.com/fhir/ActivityDefinition/ce2df6ab-5087-435c-35cb-a84572e756a2"/>
            <title value="Long-term - 25°C/60% RH - XY"/>
            <status value="active"/>
            <observationRequirement value="ObservationDefinition/longTerm25X"/>
            <observationRequirement value="ObservationDefinition/longTerm25Y"/>
         </ActivityDefinition>
      </resource>
   </entry>
   <entry>
      <fullUrl value="urn:uuid:cf2df6ab-5087-435c-35cb-a84572e756a2"/>
      <resource>
         <ActivityDefinition>
            <id value="activityLongTerm25XY-24"/>
            <meta>
               <profile value="http://hl7.org/fhir/uv/pharm-quality/StructureDefinition/ActivityDefinition-test-drug-pq"/>
            </meta>
            <url value="http://example-server.com/fhir/ActivityDefinition/cf2df6ab-5087-435c-35cb-a84572e756a2"/>
            <title value="Long-term - 25°C/60% RH - XY"/>
            <status value="active"/>
            <observationRequirement value="ObservationDefinition/longTerm25X"/>
            <observationRequirement value="ObservationDefinition/longTerm25Y"/>
         </ActivityDefinition>
      </resource>
   </entry>
   <entry>
      <fullUrl value="urn:uuid:d1d252cf-9d58-43a0-85f6-56a7f7f92774"/>
      <resource>
         <ObservationDefinition>
            <id value="longTerm25X"/>
            <meta>
               <profile value="http://hl7.org/fhir/uv/pharm-quality/StructureDefinition/ObservationDefinition-test-method-drug-pq"/>
            </meta>
            <!--url value="http://example-server.com/fhir/ObservationDefinition/b40d24f0-1c09-4a46-8849-b73524ca8ab1"/-->
            <url value="http://hl7.org/fhir/uv/pharm-quality/ObservationDefinition/observationdefinition-test-method-drug-pq-ex1"/>
            <title value="X"/>
            <status value="active"/>
            <code>
               <text value="Battery of tests 'X' at 25°C/60% RH"/>
            </code>
            <specimen>
               <reference value="SpecimenDefinition/specimendefinition-drug-pq-ex1"/>
            </specimen>
            <hasMember>
               <reference value="ObservationDefinition/Description"/>
            </hasMember>
            <hasMember>
               <reference value="ObservationDefinition/Degradation"/>
            </hasMember>
            <hasMember>
               <reference value="ObservationDefinition/Water"/>
            </hasMember>
            <!-- can have others -->
         </ObservationDefinition>
      </resource>
   </entry>
   <entry>
      <fullUrl value="urn:uuid:1178fc31-0cfd-8c60-0b5b-9ae2850c6774"/>
      <resource>
         <ObservationDefinition>
            <id value="Description"/>
            <meta>
               <profile value="http://hl7.org/fhir/uv/pharm-quality/StructureDefinition/ObservationDefinition-test-method-drug-pq"/>
            </meta>
            <url value="http://example-server.com/fhir/ObservationDefinition/1178fc31-0cfd-8c60-0b5b-9ae2850c6774"/>
            <title value="Description"/>
            <status value="active"/>
            <code>
               <coding>
                  <system value="http://hl7.org/fhir/uv/pharm-quality/CodeSystem/cs-local-codes-drug-pq"/>
                  <code value="DESC"/>
                  <display value="Description"/>
               </coding>
               <text value="Description"/>
            </code>
            <qualifiedValue>
               <extension url="http://hl7.org/fhir/uv/pharm-quality/StructureDefinition/Extension-qualified-value-text-pq">
                  <valueString value="An orange film-coated tablet, debossed with 175 on one side">
                     
                  </valueString>
               </extension>
            </qualifiedValue>
         </ObservationDefinition>
      </resource>
   </entry>
   <entry>
      <fullUrl value="urn:uuid:2c5683d6-6e94-825b-056a-129a04c95e2f"/>
      <resource>
         <ObservationDefinition>
            <id value="Degradation"/>
            <meta>
               <profile value="http://hl7.org/fhir/uv/pharm-quality/StructureDefinition/ObservationDefinition-test-method-drug-pq"/>
            </meta>
            <url value="http://example-server.com/fhir/ObservationDefinition/2c5683d6-6e94-825b-056a-129a04c95e2f"/>
            <title value="Degradation Products by HPLC (% w/w)"/>
            <status value="active"/>
            <code>
               <coding>
                  <system value="http://hl7.org/fhir/uv/pharm-quality/CodeSystem/cs-local-codes-drug-pq"/>
                  <code value="DGP"/>
                  <display value="Degradation Products"/>
               </coding>
            </code>
            <qualifiedValue>
               <appliesTo> <!-- could be a code -->
                  <text value="Impurity 1"/>
               </appliesTo>
               <range>
                  <high>
                     <value value="0.8"/>
                     <unit value="% w/w"/>
                     <system value="http://unitsofmeasure.org"/>
                     <code value="%"/>
                  </high>
               </range>
            </qualifiedValue>
            <qualifiedValue>
               <appliesTo>
                  <text value="Impurity 2"/>
               </appliesTo>
               <range>
                  <high>
                     <value value="0.4"/>
                     <unit value="% w/w"/>
                     <system value="http://unitsofmeasure.org"/>
                     <code value="%"/>
                  </high>
               </range>
            </qualifiedValue>
            <qualifiedValue>
               <appliesTo>
                  <text value="Impurity 3"/>
               </appliesTo>
               <range>
                  <high>
                     <value value="0.4"/>
                     <unit value="% w/w"/>
                     <system value="http://unitsofmeasure.org"/>
                     <code value="%"/>
                  </high>
               </range>
            </qualifiedValue>
            <qualifiedValue>
               <appliesTo>
                  <text value="Any Unspecified Degradation Impurity"/>
               </appliesTo>
               <range>
                  <high>
                     <value value="0.2"/>
                     <unit value="% w/w"/>
                     <system value="http://unitsofmeasure.org"/>
                     <code value="%"/>
                  </high>
               </range>
            </qualifiedValue>
            <qualifiedValue>
               <appliesTo>
                  <text value="Total Degradation Impurities"/>
               </appliesTo>
               <range>
                  <high>
                     <value value="2.3"/>
                     <unit value="% w/w"/>
                     <system value="http://unitsofmeasure.org"/>
                     <code value="%"/>
                  </high>
               </range>
            </qualifiedValue>
            <component> <!-- are expected to have a component that says what impurity this one is -->
               <code>
                  <coding>
                     <system value="http://hl7.org/fhir/uv/pharm-quality/CodeSystem/cs-local-codes-drug-pq"/>
                     <code value="IMP"/>
                     <display value="Impurity"/>
                  </coding>
               </code>
            </component>
         </ObservationDefinition>
      </resource>
   </entry>
   <entry>
      <fullUrl value="urn:uuid:186eb33e-a01d-4252-166c-b5ba5e8a697c"/>
      <resource>
         <ObservationDefinition>
            <id value="Water"/>
            <meta>
               <profile value="http://hl7.org/fhir/uv/pharm-quality/StructureDefinition/ObservationDefinition-test-method-drug-pq"/>
            </meta>
            <url value="http://example-server.com/fhir/ObservationDefinition/186eb33e-a01d-4252-166c-b5ba5e8a697c"/>
            <title value="Water Content (% w/w) (Mean)"/>
            <status value="active"/>
            <code>
               <coding>
                  <system value="http://hl7.org/fhir/uv/pharm-quality/CodeSystem/cs-local-codes-drug-pq"/>
                  <code value="WaterContent"/>
                  <display value="Water Content"/>
               </coding>
               <text value="Water Content"/>
            </code>
            <qualifiedValue>
               <range>
                  <high>
                     <value value="0.2"/>
                     <unit value="% w/w"/>
                     <system value="http://unitsofmeasure.org"/>
                     <code value="%"/>
                  </high>
               </range>
            </qualifiedValue>
         </ObservationDefinition>
      </resource>
   </entry>
   <entry>
      <fullUrl value="urn:uuid:b62b9524-53af-84ae-1071-2867a2169851"/>
      <resource>
         <ObservationDefinition>
            <id value="longTerm25Y"/>
            <meta>
               <profile value="http://hl7.org/fhir/uv/pharm-quality/StructureDefinition/ObservationDefinition-test-method-drug-pq"/>
            </meta>
            <url value="http://example-server.com/fhir/ObservationDefinition/b62b9524-53af-84ae-1071-2867a2169851"/>
            <title value="Y"/>
            <status value="active"/>
            <code>
               <text value="Battery of tests 'Y' at 25°C/60% RH"/>
            </code>
            <specimen>
               <reference value="SpecimenDefinition/specimendefinition-drug-pq-ex1"/>
            </specimen>
            <hasMember>
               <reference value="ObservationDefinition/Microbiological"/>
            </hasMember>
            <!-- can have others -->
         </ObservationDefinition>
      </resource>
   </entry>
   <entry>
      <fullUrl value="urn:uuid:73d9d304-a0b8-31b6-1165-346563b9305e"/>
      <resource>
         <ObservationDefinition>
            <id value="Microbiological"/>
            <meta>
               <profile value="http://hl7.org/fhir/uv/pharm-quality/StructureDefinition/ObservationDefinition-test-method-drug-pq"/>
            </meta>
            <url value="http://example-server.com/fhir/ObservationDefinition/73d9d304-a0b8-31b6-1165-346563b9305e"/>
            <title value="Microbiological"/>
            <status value="active"/>
            <code>
               <coding>
                  <system value="http://hl7.org/fhir/uv/pharm-quality/CodeSystem/cs-local-codes-drug-pq"/>
                  <code value="Microbiological Quality"/>
                  <display value="Microbiological Quality"/>
               </coding>
               <text value="Microbiological Quality"/>
            </code>
            <qualifiedValue>
               <extension url="http://hl7.org/fhir/uv/pharm-quality/StructureDefinition/Extension-qualified-value-text-pq">
                  <valueString value="Complies with PhEur"/>
               </extension>
            </qualifiedValue>
         </ObservationDefinition>
      </resource>
   </entry>
   <entry>
      <fullUrl value="urn:uuid:363384c8-0d79-5ff0-5538-4933f99d6409"/>
      <resource>
         <ObservationDefinition>
            <id value="longTerm25Z"/>
            <meta>
               <profile value="http://hl7.org/fhir/uv/pharm-quality/StructureDefinition/ObservationDefinition-test-method-drug-pq"/>
            </meta>
            <url value="http://example-server.com/fhir/ObservationDefinition/363384c8-0d79-5ff0-5538-4933f99d6409"/>
            <title value="Z"/>
            <status value="active"/>
            <code>
               <text value="Battery of tests 'Z' at 25°C/60% RH"/>
            </code>
            <specimen>
               <reference value="SpecimenDefinition/specimendefinition-drug-pq-ex1"/>
            </specimen>
            <hasMember>
               <reference value="ObservationDefinition/Uniformity"/>
            </hasMember>
            <!-- can have others -->
         </ObservationDefinition>
      </resource>
   </entry>
   <entry>
      <fullUrl value="urn:uuid:ef781c18-8e86-7859-209b-469ee9ad42d8"/>
      <resource>
         <ObservationDefinition>
            <id value="Uniformity"/>
            <meta>
               <profile value="http://hl7.org/fhir/uv/pharm-quality/StructureDefinition/ObservationDefinition-test-method-drug-pq"/>
            </meta>
            <url value="http://example-server.com/fhir/ObservationDefinition/ef781c18-8e86-7859-209b-469ee9ad42d8"/>
            <title value="Uniformity of dosage"/>
            <status value="active"/>
            <code>
               <coding>
                  <system value="http://hl7.org/fhir/uv/pharm-quality/CodeSystem/cs-local-codes-drug-pq"/>
                  <code value="uniformity-dosage"/>
                  <display value="uniformity of dosage units (by weight)"/>
               </coding>
               <text value="uniformity of dosage units (by weight)"/>
            </code>
            <qualifiedValue>
               <extension url="http://hl7.org/fhir/uv/pharm-quality/StructureDefinition/Extension-qualified-value-text-pq">
                  <valueString value="Complies"/>
               </extension>
            </qualifiedValue>
         </ObservationDefinition>
      </resource>
   </entry>
   <!-- Accelerated tests -->
   <entry>
      <fullUrl value="urn:uuid:e95109ac-5ef9-1723-3506-2ef2f2e33d87"/>
      <resource>
         <SpecimenDefinition>
            <id value="specimenDefStoredAt40"/>
            <url value="http://example-server.com/fhir/SpecimenDefinition/e95109ac-5ef9-1723-3506-2ef2f2e33d87"/>
            <status value="active"/>
            <typeTested>
               <preference value="preferred"/>
               <handling>
                  <instruction value="40°C/75% RH"/>
               </handling>
            </typeTested>
         </SpecimenDefinition>
      </resource>
   </entry>
   <entry>
      <fullUrl value="urn:uuid:096e3f32-798e-6792-76ad-4ea783521c50"/>
      <resource>
         <ActivityDefinition>
            <id value="activityAccelerated40X-3"/>
            <meta>
               <profile value="http://hl7.org/fhir/uv/pharm-quality/StructureDefinition/ActivityDefinition-test-drug-pq"/>
            </meta>
            <url value="http://example-server.com/fhir/ActivityDefinition/096e3f32-798e-6792-76ad-4ea783521c50"/>
            <title value="Accelerated - 40°C/70% RH - X"/>
            <status value="active"/>
            <observationRequirement value="ObservationDefinition/accelerated40X"/>
         </ActivityDefinition>
      </resource>
   </entry>
   <entry>
      <fullUrl value="urn:uuid:77f86b13-8193-3df7-8362-ab5e79ba541d"/>
      <resource>
         <ActivityDefinition>
            <id value="activityAccelerated40X-6"/>
            <meta>
               <profile value="http://hl7.org/fhir/uv/pharm-quality/StructureDefinition/ActivityDefinition-test-drug-pq"/>
            </meta>
            <url value="http://example-server.com/fhir/ActivityDefinition/77f86b13-8193-3df7-8362-ab5e79ba541d"/>
            <title value="Accelerated - 40°C/70% RH - X"/>
            <status value="active"/>
            <observationRequirement value="ObservationDefinition/accelerated40X"/>
         </ActivityDefinition>
      </resource>
   </entry>
   <entry>
      <fullUrl value="urn:uuid:6b96124b-1a44-0b6b-6783-d6c49360230b"/>
      <resource>
         <ActivityDefinition>
            <id value="activityAccelerated40XYZ-Initial"/>
            <meta>
               <profile value="http://hl7.org/fhir/uv/pharm-quality/StructureDefinition/ActivityDefinition-test-drug-pq"/>
            </meta>
            <url value="http://example-server.com/fhir/ActivityDefinition/6b96124b-1a44-0b6b-6783-d6c49360230b"/>
            <title value="Accelerated - 40°C/70% RH - XYZ"/>
            <status value="active"/>
            <observationRequirement value="ObservationDefinition/accelerated40X"/>
            <observationRequirement value="ObservationDefinition/accelerated40Y"/>
            <observationRequirement value="ObservationDefinition/accelerated40Z"/>
         </ActivityDefinition>
      </resource>
   </entry>
   <entry>
      <fullUrl value="urn:uuid:792ae02e-5ba3-13d1-8cc2-fd24a22f7f0b"/>
      <resource>
         <ObservationDefinition>
            <id value="accelerated40X"/>
            <meta>
               <profile value="http://hl7.org/fhir/uv/pharm-quality/StructureDefinition/ObservationDefinition-test-method-drug-pq"/>
            </meta>
            <url value="http://example-server.com/fhir/ObservationDefinition/792ae02e-5ba3-13d1-8cc2-fd24a22f7f0b"/>
            <title value="X"/>
            <status value="active"/>
            <code>
               <text value="Battery of tests 'X' at 40°C/75% RH"/>
            </code>
            <specimen>
               <reference value="SpecimenDefinition/specimenDefStoredAt40"/>
            </specimen>
            <hasMember>
               <reference value="ObservationDefinition/Description"/>
            </hasMember>
            <hasMember>
               <reference value="ObservationDefinition/Water"/>
            </hasMember>
            <!-- can have others -->
         </ObservationDefinition>
      </resource>
   </entry>
   <entry>
      <fullUrl value="urn:uuid:58cb0710-0ee6-1b7a-2a64-61a01df95ac2"/>
      <resource>
         <ObservationDefinition>
            <id value="accelerated40Y"/>
            <meta>
               <profile value="http://hl7.org/fhir/uv/pharm-quality/StructureDefinition/ObservationDefinition-test-method-drug-pq"/>
            </meta>
            <url value="http://example-server.com/fhir/ObservationDefinition/58cb0710-0ee6-1b7a-2a64-61a01df95ac2"/>
            <title value="Y"/>
            <status value="active"/>
            <code>
               <text value="Battery of tests 'Y' at 40°C/75% RH"/>
            </code>
            <specimen>
               <reference value="SpecimenDefinition/specimenDefStoredAt40"/>
            </specimen>
            <hasMember>
               <reference value="ObservationDefinition/Microbiological"/>
            </hasMember>
            <!-- can have others -->
         </ObservationDefinition>
      </resource>
   </entry>
   <entry>
      <fullUrl value="urn:uuid:9bc183ee-6017-789b-8a6f-6a5c339f9ae0"/>
      <resource>
         <ObservationDefinition>
            <id value="accelerated40Z"/>
            <meta>
               <profile value="http://hl7.org/fhir/uv/pharm-quality/StructureDefinition/ObservationDefinition-test-method-drug-pq"/>
            </meta>
            <url value="http://example-server.com/fhir/ObservationDefinition/9bc183ee-6017-789b-8a6f-6a5c339f9ae0"/>
            <title value="Z"/>
            <status value="active"/>
            <code>
               <text value="Battery of tests 'Z' at 25°C/60% RH"/>
            </code>
            <specimen>
               <reference value="SpecimenDefinition/specimenDefStoredAt40"/>
            </specimen>
            <hasMember>
               <reference value="ObservationDefinition/Uniformity"/>
            </hasMember>
            <!-- can have others -->
         </ObservationDefinition>
      </resource>
   </entry>
   <entry>
      <fullUrl value="urn:uuid:b664977d-799d-a1ce-928a-5def2a9955bd"/>
      <resource>
         <Specimen>
            <id value="specimen-drug-pq-ex1"/>
            <meta>
               <profile value="http://hl7.org/fhir/uv/pharm-quality/StructureDefinition/Specimen-drug-pq"/>
            </meta>
            <collection>
               <collectedDateTime value="2020-12-01"/>
               <!-- when sample first taken, before the timed periods start -->
            </collection>
            <processing>
               <description value="No storage"/>
            </processing>
            <processing>
               <description value="25°C/60% RH"/>
            </processing>
         </Specimen>
      </resource>
   </entry>
   <entry>
      <fullUrl value="urn:uuid:b664977d-799d-a1ce-928a-5def2a9955be"/>
      <resource>
         <Specimen>
            <id value="stabilityInitial-2"/>
            <meta>
               <profile value="http://hl7.org/fhir/uv/pharm-quality/StructureDefinition/Specimen-drug-pq"/>
            </meta>
            <collection>
               <collectedDateTime value="2020-12-02"/>
               <!-- when sample first taken, before the timed periods start -->
            </collection>
            <processing>
               <description value="No storage"/>
            </processing>
            <processing>
               <description value="25°C/60% RH"/>
            </processing>
         </Specimen>
      </resource>
   </entry>
   <entry>
      <fullUrl value="urn:uuid:b664977d-799d-a1ce-928b-5def2a9955be"/>
      <resource>
         <Specimen>
            <id value="stabilityInitial-3"/>
            <meta>
               <profile value="http://hl7.org/fhir/uv/pharm-quality/StructureDefinition/Specimen-drug-pq"/>
            </meta>
            <collection>
               <collectedDateTime value="2020-12-03"/>
               <!-- when sample first taken, before the timed periods start -->
            </collection>
            <processing>
               <description value="No storage"/>
            </processing>
            <processing>
               <description value="25°C/60% RH"/>
            </processing>
         </Specimen>
      </resource>
   </entry>
   <!-- Section 11 - Stability Study - Results - Test Result - Long Term XYZ - Initial - on batch 1 -->
   <entry>
      <fullUrl value="urn:uuid:6fabbf78-9678-8030-485f-b149956308d5"/>
      <resource>
         <Observation>
            <id value="observation-test-result-longterm25c-initial-1"/>
            <meta>
               <profile value="http://hl7.org/fhir/uv/pharm-quality/StructureDefinition/Observation-test-result-drug-pq"/>
            </meta>
            <contained>
               <Observation>
                  <id value="LongTerm25C-initial-1-Description"/>
                  <meta>
                     <profile value="http://hl7.org/fhir/uv/pharm-quality/StructureDefinition/Observation-test-result-drug-pq"/>
                  </meta>
                  <instantiatesReference>
                     <reference value="ObservationDefinition/Description"/>
                  </instantiatesReference>
                  <status value="final"/>
                  <code>
                     <coding>
                        <system value="http://hl7.org/fhir/uv/pharm-quality/CodeSystem/cs-local-codes-drug-pq"/>
                        <code value="DESC"/>
                        <display value="Description"/>
                     </coding>
                     <text value="Description"/>
                  </code>
                  <subject>
                     <reference value="Medication/medication-batch-information-drug-pq-ex1"/>
                  </subject>
                  <effectiveDateTime value="2023-01-01T12:00:00Z"/>
                  <performer>
                     <reference value="Organization/tester"/>
                  </performer>
                  <valueCodeableConcept>
                     <text value="Complies"/>
                  </valueCodeableConcept>
               </Observation>
            </contained>
            <contained>
               <Observation>
                  <id value="observation-test-result-lt25c-i1-degradation-imp1"/>
                  <meta>
                     <profile value="http://hl7.org/fhir/uv/pharm-quality/StructureDefinition/Observation-test-result-drug-pq"/>
                  </meta>
                  <instantiatesReference>
                     <reference value="ObservationDefinition/Degradation"/>
                  </instantiatesReference>
                  <status value="final"/>
                  <code>
                     <coding>
                        <system value="http://hl7.org/fhir/uv/pharm-quality/CodeSystem/cs-local-codes-drug-pq"/>
                        <code value="DGP"/>
                        <display value="Degradation Products"/>
                     </coding>
                     <text value="Degradation Products"/>
                  </code>
                  <subject>
                     <reference value="Medication/medication-batch-information-drug-pq-ex1"/>
                  </subject>
                  <effectiveDateTime value="2023-01-01T12:00:00Z"/>
                  <performer>
                     <reference value="Organization/tester"/>
                  </performer>
                  <valueQuantity>
                     <value value="0.101"/>
                     <unit value="% w/w"/>
                     <system value="http://unitsofmeasure.org"/>
                     <code value="%"/>
                  </valueQuantity>
                  <component>
                     <code>
                        <coding>
                           <system value="http://hl7.org/fhir/uv/pharm-quality/CodeSystem/cs-local-codes-drug-pq"/>
                           <code value="IMP"/>
                           <display value="Impurity"/>
                        </coding>
                     </code>
                     <valueCodeableConcept>
                                <!-- could have the code of an impurity substance, or could have an extension to point to it as a resource -->
                        <text value="Impurity 1"/>
                     </valueCodeableConcept>
                  </component>
               </Observation>
            </contained>
            <contained>
               <Observation>
                  <id value="LongTerm25C-initial-1-Degradation-imp2"/>
                  <meta>
                     <profile value="http://hl7.org/fhir/uv/pharm-quality/StructureDefinition/Observation-test-result-drug-pq"/>
                  </meta>
                  <instantiatesReference>
                     <reference value="ObservationDefinition/Degradation"/>
                  </instantiatesReference>
                  <status value="final"/>
                  <code>
                     <coding>
                        <system value="http://hl7.org/fhir/uv/pharm-quality/CodeSystem/cs-local-codes-drug-pq"/>
                        <code value="DGP"/>
                        <display value="Degradation Products"/>
                     </coding>
                     <text value="Degradation Products"/>
                  </code>
                  <subject>
                     <reference value="Medication/medication-batch-information-drug-pq-ex1"/>
                  </subject>
                  <effectiveDateTime value="2023-01-01T12:00:00Z"/>
                  <performer>
                     <reference value="Organization/tester"/>
                  </performer>
                  <valueQuantity>
                     <value value="0.201"/>
                     <unit value="% w/w"/>
                     <system value="http://unitsofmeasure.org"/>
                     <code value="%"/>
                  </valueQuantity>
                  <component>
                     <code>
                        <coding>
                           <system value="http://hl7.org/fhir/uv/pharm-quality/CodeSystem/cs-local-codes-drug-pq"/>
                           <code value="IMP"/>
                           <display value="Impurity"/>
                        </coding>
                     </code>
                     <valueCodeableConcept>
                        <text value="Impurity 2"/>
                     </valueCodeableConcept>
                  </component>
               </Observation>
            </contained>
            <contained>
               <Observation>
                  <id value="LongTerm25C-initial-1-Degradation-imp3"/>
                  <meta>
                     <profile value="http://hl7.org/fhir/uv/pharm-quality/StructureDefinition/Observation-test-result-drug-pq"/>
                  </meta>
                  <instantiatesReference>
                     <reference value="ObservationDefinition/Degradation"/>
                  </instantiatesReference>
                  <status value="final"/>
                  <code>
                     <coding>
                        <system value="http://hl7.org/fhir/uv/pharm-quality/CodeSystem/cs-local-codes-drug-pq"/>
                        <code value="DGP"/>
                        <display value="Degradation Products"/>
                     </coding>
                     <text value="Degradation Products"/>
                  </code>
                  <subject>
                     <reference value="Medication/medication-batch-information-drug-pq-ex1"/>
                  </subject>
                  <effectiveDateTime value="2023-01-01T12:00:00Z"/>
                  <performer>
                     <reference value="Organization/tester"/>
                  </performer>
                  <valueQuantity>
                     <value value="0.201"/>
                     <unit value="% w/w"/>
                     <system value="http://unitsofmeasure.org"/>
                     <code value="%"/>
                  </valueQuantity>
                  <component>
                     <code>
                        <coding>
                           <system value="http://hl7.org/fhir/uv/pharm-quality/CodeSystem/cs-local-codes-drug-pq"/>
                           <code value="IMP"/>
                           <display value="Impurity"/>
                        </coding>
                     </code>
                     <valueCodeableConcept>
                        <text value="Impurity 3"/>
                     </valueCodeableConcept>
                  </component>
               </Observation>
            </contained>
            <contained>
               <Observation>
                  <id value="LongTerm25C-initial-1-Degradation-impUnspecified"/>
                  <meta>
                     <profile value="http://hl7.org/fhir/uv/pharm-quality/StructureDefinition/Observation-test-result-drug-pq"/>
                  </meta>
                  <instantiatesReference>
                     <reference value="ObservationDefinition/Degradation"/>
                  </instantiatesReference>
                  <status value="final"/>
                  <code>
                     <coding>
                        <system value="http://hl7.org/fhir/uv/pharm-quality/CodeSystem/cs-local-codes-drug-pq"/>
                        <code value="DGP"/>
                        <display value="Degradation Products"/>
                     </coding>
                     <text value="Degradation Products"/>
                  </code>
                  <subject>
                     <reference value="Medication/medication-batch-information-drug-pq-ex1"/>
                  </subject>
                  <effectiveDateTime value="2023-01-01T12:00:00Z"/>
                  <performer>
                     <reference value="Organization/tester"/>
                  </performer>
                  <valueQuantity>
                     <value value="0.101"/>
                     <comparator value="&lt;"/>
                     <unit value="% w/w"/>
                     <system value="http://unitsofmeasure.org"/>
                     <code value="%"/>
                  </valueQuantity>
                  <component>
                     <code>
                        <coding>
                           <system value="http://hl7.org/fhir/uv/pharm-quality/CodeSystem/cs-local-codes-drug-pq"/>
                           <code value="IMP"/>
                           <display value="Impurity"/>
                        </coding>
                     </code>
                     <valueCodeableConcept>
                        <text value="Any Unspecified Degradation Impurity"/>
                     </valueCodeableConcept>
                  </component>
               </Observation>
            </contained>
            <contained>
               <Observation>
                  <id value="LongTerm25C-initial-1-Degradation-impTotal"/>
                  <meta>
                     <profile value="http://hl7.org/fhir/uv/pharm-quality/StructureDefinition/Observation-test-result-drug-pq"/>
                  </meta>
                  <instantiatesReference>
                     <reference value="ObservationDefinition/Degradation"/>
                  </instantiatesReference>
                  <status value="final"/>
                  <code>
                     <coding>
                        <system value="http://hl7.org/fhir/uv/pharm-quality/CodeSystem/cs-local-codes-drug-pq"/>
                        <code value="DGP"/>
                        <display value="Degradation Products"/>
                     </coding>
                     <text value="Degradation Products"/>
                  </code>
                  <subject>
                     <reference value="Medication/medication-batch-information-drug-pq-ex1"/>
                  </subject>
                  <effectiveDateTime value="2023-01-01T12:00:00Z"/>
                  <performer>
                     <reference value="Organization/tester"/>
                  </performer>
                  <valueQuantity>
                     <value value="0.801"/>
                     <unit value="% w/w"/>
                     <system value="http://unitsofmeasure.org"/>
                     <code value="%"/>
                  </valueQuantity>
                  <component>
                     <code>
                        <coding>
                           <system value="http://hl7.org/fhir/uv/pharm-quality/CodeSystem/cs-local-codes-drug-pq"/>
                           <code value="IMP"/>
                           <display value="Impurity"/>
                        </coding>
                     </code>
                     <valueCodeableConcept>
                        <text value="Total Degradation Impurities"/>
                     </valueCodeableConcept>
                  </component>
               </Observation>
            </contained>
            <contained>
               <Observation>
                  <id value="LongTerm25C-initial-1-Water"/>
                  <meta>
                     <profile value="http://hl7.org/fhir/uv/pharm-quality/StructureDefinition/Observation-test-result-drug-pq"/>
                  </meta>
                  <instantiatesReference>
                     <reference value="ObservationDefinition/Water"/>
                  </instantiatesReference>
                  <status value="final"/>
                  <code>
                     <coding>
                        <system value="http://hl7.org/fhir/uv/pharm-quality/CodeSystem/cs-local-codes-drug-pq"/>
                        <code value="WaterContent"/>
                        <display value="Water Content"/>
                     </coding>
                  </code>
                  <subject>
                     <reference value="Medication/medication-batch-information-drug-pq-ex1"/>
                  </subject>
                  <effectiveDateTime value="2023-01-01T12:00:00Z"/>
                  <performer>
                     <reference value="Organization/tester"/>
                  </performer>
                  <valueQuantity>
                     <value value="0.1501"/>
                     <unit value="% w/w"/>
                     <system value="http://unitsofmeasure.org"/>
                     <code value="%"/>
                  </valueQuantity>
               </Observation>
            </contained>
            <contained>
               <Observation>
                  <id value="LongTerm25C-initial-1-Microbiological"/>
                  <meta>
                     <profile value="http://hl7.org/fhir/uv/pharm-quality/StructureDefinition/Observation-test-result-drug-pq"/>
                  </meta>
                  <instantiatesReference>
                     <reference value="ObservationDefinition/Microbiological"/>
                  </instantiatesReference>
                  <status value="final"/>
                  <code>
                     <coding>
                        <system value="http://hl7.org/fhir/uv/pharm-quality/CodeSystem/cs-local-codes-drug-pq"/>
                        <code value="Microbiological Quality"/>
                        <display value="Microbiological Quality"/>
                     </coding>
                  </code>
                  <subject>
                     <reference value="Medication/medication-batch-information-drug-pq-ex1"/>
                  </subject>
                  <effectiveDateTime value="2023-01-01T12:00:00Z"/>
                  <performer>
                     <reference value="Organization/tester"/>
                  </performer>
                  <valueCodeableConcept>
                     <text value="Complies"/>
                  </valueCodeableConcept>
               </Observation>
            </contained>
            <contained>
               <Observation>
                  <id value="LongTerm25C-initial-1-Uniformity"/>
                  <meta>
                     <profile value="http://hl7.org/fhir/uv/pharm-quality/StructureDefinition/Observation-test-result-drug-pq"/>
                  </meta>
                  <instantiatesReference>
                     <reference value="ObservationDefinition/Uniformity"/>
                  </instantiatesReference>
                  <status value="final"/>
                  <code>
                     <coding>
                        <system value="http://hl7.org/fhir/uv/pharm-quality/CodeSystem/cs-local-codes-drug-pq"/>
                        <code value="uniformity-dosage"/>
                        <display value="Uniformity of dosage units (by weight)"/>
                     </coding>
                  </code>
                  <subject>
                     <reference value="Medication/medication-batch-information-drug-pq-ex1"/>
                  </subject>
                  <effectiveDateTime value="2023-01-01T12:00:00Z"/>
                  <performer>
                     <reference value="Organization/tester"/>
                  </performer>
                  <valueCodeableConcept>
                     <text value="Complies"/>
                  </valueCodeableConcept>
               </Observation>
            </contained>
            <extension url="http://hl7.org/fhir/StructureDefinition/workflow-triggeredBy">
               <valueReference>
                  <reference value="ActivityDefinition/activitydefinition-test-drug-pq-ex1"/>
               </valueReference>
            </extension>
            <status value="final"/>
            <code>
               <text value="Test Components - Long-term 25C etc - Initial (XYZ)"/>
            </code>
            <subject>
               <reference value="Medication/medication-batch-information-drug-pq-ex1"/>
            </subject>
            <effectiveDateTime value="2023-01-01T12:00:00Z"/>
            <performer>
               <reference value="Organization/tester"/>
            </performer>
            <specimen>
               <reference value="Specimen/specimen-drug-pq-ex1"/>
            </specimen>
            <hasMember>
               <reference value="#LongTerm25C-initial-1-Description"/>
            </hasMember>
            <hasMember>
               <reference value="#observation-test-result-lt25c-i1-degradation-imp1"/>
            </hasMember>
            <hasMember>
               <reference value="#LongTerm25C-initial-1-Degradation-imp2"/>
            </hasMember>
            <hasMember>
               <reference value="#LongTerm25C-initial-1-Degradation-imp3"/>
            </hasMember>
            <hasMember>
               <reference value="#LongTerm25C-initial-1-Degradation-impUnspecified"/>
            </hasMember>
            <hasMember>
               <reference value="#LongTerm25C-initial-1-Degradation-impTotal"/>
            </hasMember>
            <hasMember>
               <reference value="#LongTerm25C-initial-1-Water"/>
            </hasMember>
            <hasMember>
               <reference value="#LongTerm25C-initial-1-Microbiological"/>
            </hasMember>
            <hasMember>
               <reference value="#LongTerm25C-initial-1-Uniformity"/>
            </hasMember>
         </Observation>
      </resource>
   </entry>
   <!-- Section 11 - Stability Study - Results - Test Result - Long Term XYZ - on batch 2 -->
   <entry>
      <fullUrl value="urn:uuid:74535cc6-5232-5ab5-81cf-167a480795e5"/>
      <resource>
         <Observation>
            <id value="LongTerm25C-initial-2"/>
            <contained>
               <Observation>
                  <id value="LongTerm25C-initial-2-Description"/>
                  <instantiatesReference>
                     <reference value="ObservationDefinition/Description"/>
                  </instantiatesReference>
                  <status value="final"/>
                  <code>
                     <coding>
                        <system value="http://hl7.org/fhir/uv/pharm-quality/CodeSystem/cs-local-codes-drug-pq"/>
                        <code value="DESC"/>
                        <display value="Description"/>
                     </coding>
                     <text value="Description"/>
                  </code>
                  <subject>
                     <reference value="Medication/medication-actual-batch-2"/>
                  </subject>
                  <effectiveDateTime value="2023-01-01T12:00:00Z"/>
                  <performer>
                     <reference value="Organization/tester"/>
                  </performer>
                  <valueCodeableConcept>
                     <text value="Complies"/>
                  </valueCodeableConcept>
               </Observation>
            </contained>
            <contained>
               <Observation>
                  <id value="LongTerm25C-initial-2-Degradation"/>
                  <instantiatesReference>
                     <reference value="ObservationDefinition/Degradation"/>
                  </instantiatesReference>
                  <status value="final"/>
                  <code>
                     <coding>
                        <system value="http://hl7.org/fhir/uv/pharm-quality/CodeSystem/cs-local-codes-drug-pq"/>
                        <code value="DGP"/>
                        <display value="Degradation Products"/>
                     </coding>
                     <text value="Degradation Products"/>
                  </code>
                  <subject>
                     <reference value="Medication/medication-actual-batch-2"/>
                  </subject>
                  <effectiveDateTime value="2023-01-01T12:00:00Z"/>
                  <performer>
                     <reference value="Organization/tester"/>
                  </performer>
                  <valueQuantity>
                     <value value="0.1"/>
                     <unit value="% w/w"/>
                     <system value="http://unitsofmeasure.org"/>
                     <code value="%"/>
                  </valueQuantity>
               </Observation>
            </contained>
            <contained>
               <Observation>
                  <id value="LongTerm25C-initial-2-Microbiological"/>
                  <instantiatesReference>
                     <reference value="ObservationDefinition/Microbiological"/>
                  </instantiatesReference>
                  <status value="final"/>
                  <code>
                     <coding>
                        <system value="http://hl7.org/fhir/uv/pharm-quality/CodeSystem/cs-local-codes-drug-pq"/>
                        <code value="Microbiological Quality"/>
                        <display value="Microbiological Quality"/>
                     </coding>
                  </code>
                  <subject>
                     <reference value="Medication/medication-actual-batch-2"/>
                  </subject>
                  <effectiveDateTime value="2023-01-01T12:00:00Z"/>
                  <performer>
                     <reference value="Organization/tester"/>
                  </performer>
                  <valueString value="Complies"/>
               </Observation>
            </contained>
            <contained>
               <Observation>
                  <id value="LongTerm25C-initial-2-Uniformity"/>
                  <instantiatesReference>
                     <reference value="ObservationDefinition/Uniformity"/>
                  </instantiatesReference>
                  <status value="final"/>
                  <code>
                     <coding>
                        <system value="http://hl7.org/fhir/uv/pharm-quality/CodeSystem/cs-local-codes-drug-pq"/>
                        <code value="uniformity-dosage"/>
                        <display value="Uniformity of dosage units (by weight)"/>
                     </coding>
                  </code>
                  <subject>
                     <reference value="Medication/medication-actual-batch-2"/>
                  </subject>
                  <effectiveDateTime value="2023-01-01T12:00:00Z"/>
                  <performer>
                     <reference value="Organization/tester"/>
                  </performer>
                  <valueCodeableConcept>
                     <text value="Complies"/>
                  </valueCodeableConcept>
               </Observation>
            </contained>
            <!-- use a standard extension to say what plan this is being done for. However it doesn't link to the step of that plan
                     that would mean using sub-ActivityDefintions probably -->
            <extension url="http://hl7.org/fhir/StructureDefinition/workflow-triggeredBy">
               <valueReference>
                  <reference value="ActivityDefinition/activitydefinition-test-drug-pq-ex1"/>
               </valueReference>
            </extension>
            <status value="final"/>
            <code>
               <text value="Test Components - Long-term 25C etc - Initial (XYZ)"/>
            </code>
            <subject>
               <reference value="Medication/medication-actual-batch-2"/>
            </subject>
            <effectiveDateTime value="2023-01-01T12:00:00Z"/>
            <performer>
               <reference value="Organization/tester"/>
            </performer>
            <specimen>
               <reference value="Specimen/stabilityInitial-2"/>
            </specimen>
            <hasMember>
               <reference value="#LongTerm25C-initial-2-Description"/>
            </hasMember>
            <hasMember>
               <reference value="#LongTerm25C-initial-2-Degradation"/>
            </hasMember>
            <hasMember>
               <reference value="#LongTerm25C-initial-2-Microbiological"/>
            </hasMember>
            <hasMember>
               <reference value="#LongTerm25C-initial-2-Uniformity"/>
            </hasMember>
         </Observation>
      </resource>
   </entry>
   <!-- Section 11 - Stability Study - Results - Test Result - Long Term XYZ - on batch 3 -->
   <entry>
      <fullUrl value="urn:uuid:8bf75da1-9221-66fe-6725-c64cb45a57e6"/>
      <resource>
         <Observation>
            <id value="LongTerm25C-initial-3"/>
            <contained>
               <Observation>
                  <id value="LongTerm25C-initial-3-Description"/>
                  <instantiatesReference>
                     <reference value="ObservationDefinition/Description"/>
                  </instantiatesReference>
                  <status value="final"/>
                  <code>
                     <coding>
                        <system value="http://hl7.org/fhir/uv/pharm-quality/CodeSystem/cs-local-codes-drug-pq"/>
                        <code value="DESC"/>
                        <display value="Description"/>
                     </coding>
                     <text value="Description"/>
                  </code>
                  <subject>
                     <reference value="Medication/medication-actual-batch-3"/>
                  </subject>
                  <effectiveDateTime value="2023-01-01T12:00:00Z"/>
                  <performer>
                     <reference value="Organization/tester"/>
                  </performer>
                  <valueCodeableConcept>
                     <text value="Complies"/>
                  </valueCodeableConcept>
               </Observation>
            </contained>
            <contained>
               <Observation>
                  <id value="LongTerm25C-initial-3-Degradation"/>
                  <instantiatesReference>
                     <reference value="ObservationDefinition/Degradation"/>
                  </instantiatesReference>
                  <status value="final"/>
                  <code>
                     <coding>
                        <system value="http://hl7.org/fhir/uv/pharm-quality/CodeSystem/cs-local-codes-drug-pq"/>
                        <code value="DGP"/>
                        <display value="Degradation Products"/>
                     </coding>
                     <text value="Degradation Products"/>
                  </code>
                  <subject>
                     <reference value="Medication/medication-actual-batch-3"/>
                  </subject>
                  <effectiveDateTime value="2023-01-01T12:00:00Z"/>
                  <performer>
                     <reference value="Organization/tester"/>
                  </performer>
                  <valueQuantity>
                     <value value="0.1"/>
                     <unit value="% w/w"/>
                     <system value="http://unitsofmeasure.org"/>
                     <code value="%"/>
                  </valueQuantity>
               </Observation>
            </contained>
            <contained>
               <Observation>
                  <id value="LongTerm25C-initial-3-Microbiological"/>
                  <instantiatesReference>
                     <reference value="ObservationDefinition/Microbiological"/>
                  </instantiatesReference>
                  <status value="final"/>
                  <code>
                     <coding>
                        <system value="http://hl7.org/fhir/uv/pharm-quality/CodeSystem/cs-local-codes-drug-pq"/>
                        <code value="Microbiological Quality"/>
                        <display value="Microbiological Quality"/>
                     </coding>
                  </code>
                  <subject>
                     <reference value="Medication/medication-actual-batch-3"/>
                  </subject>
                  <effectiveDateTime value="2023-01-01T12:00:00Z"/>
                  <performer>
                     <reference value="Organization/tester"/>
                  </performer>
                  <valueCodeableConcept>
                     <text value="Complies"/>
                  </valueCodeableConcept>
               </Observation>
            </contained>
            <contained>
               <Observation>
                  <id value="LongTerm25C-initial-3-Uniformity"/>
                  <instantiatesReference>
                     <reference value="ObservationDefinition/Uniformity"/>
                  </instantiatesReference>
                  <status value="final"/>
                  <code>
                     <coding>
                        <system value="http://hl7.org/fhir/uv/pharm-quality/CodeSystem/cs-local-codes-drug-pq"/>
                        <code value="uniformity-dosage"/>
                        <display value="Uniformity of dosage units (by weight)"/>
                     </coding>
                  </code>
                  <subject>
                     <reference value="Medication/medication-actual-batch-3"/>
                  </subject>
                  <effectiveDateTime value="2023-01-01T12:00:00Z"/>
                  <performer>
                     <reference value="Organization/tester"/>
                  </performer>
                  <valueCodeableConcept>
                     <text value="Complies"/>
                  </valueCodeableConcept>
               </Observation>
            </contained>
            <!-- use a standard extension to say what plan this is being done for. However it doesn't link to the step of that plan
                     that would mean using sub-ActivityDefintions probably -->
            <extension url="http://hl7.org/fhir/StructureDefinition/workflow-triggeredBy">
               <valueReference>
                  <reference value="ActivityDefinition/activitydefinition-test-drug-pq-ex1"/>
               </valueReference>
            </extension>
            <status value="final"/>
            <code>
               <text value="Test Components - Long-term 25C etc - Initial (XYZ)"/>
            </code>
            <subject>
               <reference value="Medication/medication-actual-batch-3"/>
            </subject>
            <effectiveDateTime value="2023-01-01T12:00:00Z"/>
            <performer>
               <reference value="Organization/tester"/>
            </performer>
            <specimen>
               <reference value="Specimen/stabilityInitial-3"/>
            </specimen>
            <hasMember>
               <reference value="#LongTerm25C-initial-3-Description"/>
            </hasMember>
            <hasMember>
               <reference value="#LongTerm25C-initial-3-Degradation"/>
            </hasMember>
            <hasMember>
               <reference value="#LongTerm25C-initial-3-Microbiological"/>
            </hasMember>
            <hasMember>
               <reference value="#LongTerm25C-initial-3-Uniformity"/>
            </hasMember>
         </Observation>
      </resource>
   </entry>
   <!-- specimen -->
   <entry>
      <fullUrl value="urn:uuid:18826818-10c4-972c-618e-01694ff06c78"/>
      <resource>
         <Specimen>
            <id value="stability18months-1"/>
            <collection>
               <collectedDateTime value="2020-12-01"/>
               <!-- when sample first taken, before the timed periods start -->
            </collection>
            <processing>
               <description value="Store for 18 months"/>
               <timePeriod>
                  <extension url="http://hl7.org/fhir/uv/pharm-quality/StructureDefinition/Extension-batch-storage-duration-pq">
                     <valueDuration>
                        <value value="18"/>
                        <unit value="month"/>
                     </valueDuration>
                  </extension>
                  <start value="2020-12"/>
                  <end value="2022-06"/>
                  <!-- 18 months -->
               </timePeriod>
            </processing>
            <processing>
               <description value="25°C/60% RH"/>
            </processing>
         </Specimen>
      </resource>
   </entry>
   <entry>
      <fullUrl value="urn:uuid:18826818-10c4-972c-618e-01694ff06c88"/>
      <resource>
         <Specimen>
            <id value="stability18months-2"/>
            <collection>
               <collectedDateTime value="2020-12-02"/>
               <!-- when sample first taken, before the timed periods start -->
            </collection>
            <processing>
               <description value="Store for 18 months"/>
               <timePeriod>
                  <extension url="http://hl7.org/fhir/uv/pharm-quality/StructureDefinition/Extension-batch-storage-duration-pq">
                     <valueDuration>
                        <value value="18"/>
                        <unit value="month"/>
                     </valueDuration>
                  </extension>
                  <start value="2020-12"/>
                  <end value="2022-06"/>
                  <!-- 18 months -->
               </timePeriod>
            </processing>
            <processing>
               <description value="25°C/60% RH"/>
            </processing>
         </Specimen>
      </resource>
   </entry>
   <entry>
      <fullUrl value="urn:uuid:18826818-10c4-972c-618e-01694ff06c89"/>
      <resource>
         <Specimen>
            <id value="stability18months-3"/>
            <collection>
               <collectedDateTime value="2020-12-03"/>
               <!-- when sample first taken, before the timed periods start -->
            </collection>
            <processing>
               <description value="Store for 18 months"/>
               <timePeriod>
                  <extension url="http://hl7.org/fhir/uv/pharm-quality/StructureDefinition/Extension-batch-storage-duration-pq">
                     <valueDuration>
                        <value value="18"/>
                        <unit value="month"/>
                     </valueDuration>
                  </extension>
                  <start value="2020-12"/>
                  <end value="2022-06"/>
                  <!-- 18 months -->
               </timePeriod>
            </processing>
            <processing>
               <description value="25°C/60% RH"/>
            </processing>
         </Specimen>
      </resource>
   </entry>
   <!-- Section 11 - Stability Study - Results - Test Result - Long Term XY - 18M - on batch 1 -->
   <entry>
      <fullUrl value="urn:uuid:e803ad6d-0cb3-87dd-6af1-4b88c654a47c"/>
      <resource>
         <Observation>
            <id value="LongTerm25C-18m-1"/>
            <contained>
               <Observation>
                  <id value="LongTerm25C-18m-1-Description"/>
                  <instantiatesReference>
                     <reference value="ObservationDefinition/Description"/>
                  </instantiatesReference>
                  <status value="final"/>
                  <code>
                     <coding>
                        <system value="http://hl7.org/fhir/uv/pharm-quality/CodeSystem/cs-local-codes-drug-pq"/>
                        <code value="DESC"/>
                        <display value="Description"/>
                     </coding>
                     <text value="Description"/>
                  </code>
                  <subject>
                     <reference value="Medication/medication-batch-information-drug-pq-ex1"/>
                  </subject>
                  <effectiveDateTime value="2023-01-01T12:00:00Z"/>
                  <performer>
                     <reference value="Organization/tester"/>
                  </performer>
                  <valueCodeableConcept>
                     <text value="Complies"/>
                  </valueCodeableConcept>
               </Observation>
            </contained>
            <contained>
               <Observation>
                  <id value="LongTerm25C-18m-1-Degradation-imp1"/>
                  <meta>
                     <profile value="http://hl7.org/fhir/uv/pharm-quality/StructureDefinition/Observation-test-result-drug-pq"/>
                  </meta>
                  <instantiatesReference>
                     <reference value="ObservationDefinition/Degradation"/>
                  </instantiatesReference>
                  <status value="final"/>
                  <code>
                     <coding>
                        <system value="http://hl7.org/fhir/uv/pharm-quality/CodeSystem/cs-local-codes-drug-pq"/>
                        <code value="DGP"/>
                        <display value="Degradation Products"/>
                     </coding>
                     <text value="Degradation Products"/>
                  </code>
                  <subject>
                     <reference value="Medication/medication-batch-information-drug-pq-ex1"/>
                  </subject>
                  <effectiveDateTime value="2023-01-01T12:00:00Z"/>
                  <performer>
                     <reference value="Organization/tester"/>
                  </performer>
                  <valueQuantity>
                     <value value="0.118"/>
                     <unit value="% w/w"/>
                     <system value="http://unitsofmeasure.org"/>
                     <code value="%"/>
                  </valueQuantity>
                  <component>
                     <code>
                        <coding>
                           <system value="http://hl7.org/fhir/uv/pharm-quality/CodeSystem/cs-local-codes-drug-pq"/>
                           <code value="IMP"/>
                           <display value="Impurity"/>
                        </coding>
                     </code>
                     <valueCodeableConcept>
                                <!-- could have the code of an impurity substance, or could have an extension to point to it as a resource -->
                        <text value="Impurity 1"/>
                     </valueCodeableConcept>
                  </component>
               </Observation>
            </contained>
            <contained>
               <Observation>
                  <id value="LongTerm25C-18m-1-Degradation-imp2"/>
                  <instantiatesReference>
                     <reference value="ObservationDefinition/Degradation"/>
                  </instantiatesReference>
                  <status value="final"/>
                  <code>
                     <coding>
                        <system value="http://hl7.org/fhir/uv/pharm-quality/CodeSystem/cs-local-codes-drug-pq"/>
                        <code value="DGP"/>
                        <display value="Degradation Products"/>
                     </coding>
                     <text value="Degradation Products"/>
                  </code>
                  <subject>
                     <reference value="Medication/medication-batch-information-drug-pq-ex1"/>
                  </subject>
                  <effectiveDateTime value="2023-01-01T12:00:00Z"/>
                  <performer>
                     <reference value="Organization/tester"/>
                  </performer>
                  <valueQuantity>
                     <value value="0.218"/>
                     <unit value="% w/w"/>
                     <system value="http://unitsofmeasure.org"/>
                     <code value="%"/>
                  </valueQuantity>
                  <component>
                     <code>
                        <coding>
                           <system value="http://hl7.org/fhir/uv/pharm-quality/CodeSystem/cs-local-codes-drug-pq"/>
                           <code value="IMP"/>
                           <display value="Impurity"/>
                        </coding>
                     </code>
                     <valueCodeableConcept>
                        <text value="Impurity 2"/>
                     </valueCodeableConcept>
                  </component>
               </Observation>
            </contained>
            <contained>
               <Observation>
                  <id value="LongTerm25C-18m-1-Degradation-imp3"/>
                  <instantiatesReference>
                     <reference value="ObservationDefinition/Degradation"/>
                  </instantiatesReference>
                  <status value="final"/>
                  <code>
                     <coding>
                        <system value="http://hl7.org/fhir/uv/pharm-quality/CodeSystem/cs-local-codes-drug-pq"/>
                        <code value="DGP"/>
                        <display value="Degradation Products"/>
                     </coding>
                     <text value="Degradation Products"/>
                  </code>
                  <subject>
                     <reference value="Medication/medication-batch-information-drug-pq-ex1"/>
                  </subject>
                  <effectiveDateTime value="2023-01-01T12:00:00Z"/>
                  <performer>
                     <reference value="Organization/tester"/>
                  </performer>
                  <valueQuantity>
                     <value value="0.218"/>
                     <unit value="% w/w"/>
                     <system value="http://unitsofmeasure.org"/>
                     <code value="%"/>
                  </valueQuantity>
                  <component>
                     <code>
                        <coding>
                           <system value="http://hl7.org/fhir/uv/pharm-quality/CodeSystem/cs-local-codes-drug-pq"/>
                           <code value="IMP"/>
                           <display value="Impurity"/>
                        </coding>
                     </code>
                     <valueCodeableConcept>
                        <text value="Impurity 3"/>
                     </valueCodeableConcept>
                  </component>
               </Observation>
            </contained>
            <contained>
               <Observation>
                  <id value="LongTerm25C-18m-1-Degradation-impUnspecified"/>
                  <instantiatesReference>
                     <reference value="ObservationDefinition/Degradation"/>
                  </instantiatesReference>
                  <status value="final"/>
                  <code>
                     <coding>
                        <system value="http://hl7.org/fhir/uv/pharm-quality/CodeSystem/cs-local-codes-drug-pq"/>
                        <code value="DGP"/>
                        <display value="Degradation Products"/>
                     </coding>
                     <text value="Degradation Products"/>
                  </code>
                  <subject>
                     <reference value="Medication/medication-batch-information-drug-pq-ex1"/>
                  </subject>
                  <effectiveDateTime value="2023-01-01T12:00:00Z"/>
                  <performer>
                     <reference value="Organization/tester"/>
                  </performer>
                  <valueQuantity>
                     <value value="0.118"/>
                     <comparator value="&lt;"/>
                     <unit value="% w/w"/>
                     <system value="http://unitsofmeasure.org"/>
                     <code value="%"/>
                  </valueQuantity>
                  <component>
                     <code>
                        <coding>
                           <system value="http://hl7.org/fhir/uv/pharm-quality/CodeSystem/cs-local-codes-drug-pq"/>
                           <code value="IMP"/>
                           <display value="Impurity"/>
                        </coding>
                     </code>
                     <valueCodeableConcept>
                        <text value="Any Unspecified Degradation Impurity"/>
                     </valueCodeableConcept>
                  </component>
               </Observation>
            </contained>
            <contained>
               <Observation>
                  <id value="LongTerm25C-18m-1-Degradation-impTotal"/>
                  <instantiatesReference>
                     <reference value="ObservationDefinition/Degradation"/>
                  </instantiatesReference>
                  <status value="final"/>
                  <code>
                     <coding>
                        <system value="http://hl7.org/fhir/uv/pharm-quality/CodeSystem/cs-local-codes-drug-pq"/>
                        <code value="DGP"/>
                        <display value="Degradation Products"/>
                     </coding>
                     <text value="Degradation Products"/>
                  </code>
                  <subject>
                     <reference value="Medication/medication-batch-information-drug-pq-ex1"/>
                  </subject>
                  <effectiveDateTime value="2023-01-01T12:00:00Z"/>
                  <performer>
                     <reference value="Organization/tester"/>
                  </performer>
                  <valueQuantity>
                     <value value="0.818"/>
                     <unit value="% w/w"/>
                     <system value="http://unitsofmeasure.org"/>
                     <code value="%"/>
                  </valueQuantity>
                  <component>
                     <code>
                        <coding>
                           <system value="http://hl7.org/fhir/uv/pharm-quality/CodeSystem/cs-local-codes-drug-pq"/>
                           <code value="IMP"/>
                           <display value="Impurity"/>
                        </coding>
                     </code>
                     <valueCodeableConcept>
                        <text value="Total Degradation Impurities"/>
                     </valueCodeableConcept>
                  </component>
               </Observation>
            </contained>
            <contained>
               <Observation>
                  <id value="LongTerm25C-18m-1-Water"/>
                  <instantiatesReference>
                     <reference value="ObservationDefinition/Water"/>
                  </instantiatesReference>
                  <status value="final"/>
                  <code>
                     <coding>
                        <system value="http://hl7.org/fhir/uv/pharm-quality/CodeSystem/cs-local-codes-drug-pq"/>
                        <code value="WaterContent"/>
                        <display value="Water Content"/>
                     </coding>
                  </code>
                  <subject>
                     <reference value="Medication/medication-batch-information-drug-pq-ex1"/>
                  </subject>
                  <effectiveDateTime value="2023-01-01T12:00:00Z"/>
                  <performer>
                     <reference value="Organization/tester"/>
                  </performer>
                  <valueQuantity>
                     <value value="0.1518"/>
                     <unit value="% w/w"/>
                     <system value="http://unitsofmeasure.org"/>
                     <code value="%"/>
                  </valueQuantity>
               </Observation>
            </contained>
            <contained>
               <Observation>
                  <id value="LongTerm25C-18m-1-Microbiological"/>
                  <instantiatesReference>
                     <reference value="ObservationDefinition/Microbiological"/>
                  </instantiatesReference>
                  <status value="final"/>
                  <code>
                     <coding>
                        <system value="http://hl7.org/fhir/uv/pharm-quality/CodeSystem/cs-local-codes-drug-pq"/>
                        <code value="Microbiological Quality"/>
                        <display value="Microbiological Quality"/>
                     </coding>
                  </code>
                  <subject>
                     <reference value="Medication/medication-batch-information-drug-pq-ex1"/>
                  </subject>
                  <effectiveDateTime value="2023-01-01T12:00:00Z"/>
                  <performer>
                     <reference value="Organization/tester"/>
                  </performer>
                  <valueString value="Complies"/>
               </Observation>
            </contained>
            <contained>
               <Observation>
                  <id value="LongTerm25C-18m-1-Uniformity"/>
                  <instantiatesReference>
                     <reference value="ObservationDefinition/Uniformity"/>
                  </instantiatesReference>
                  <status value="final"/>
                  <code>
                     <coding>
                        <system value="http://hl7.org/fhir/uv/pharm-quality/CodeSystem/cs-local-codes-drug-pq"/>
                        <code value="uniformity-dosage"/>
                        <display value="Uniformity of dosage units (by weight)"/>
                     </coding>
                  </code>
                  <subject>
                     <reference value="Medication/medication-batch-information-drug-pq-ex1"/>
                  </subject>
                  <effectiveDateTime value="2023-01-01T12:00:00Z"/>
                  <performer>
                     <reference value="Organization/tester"/>
                  </performer>
                  <valueCodeableConcept>
                     <text value="Complies"/>
                  </valueCodeableConcept>
               </Observation>
            </contained>
            <!-- use a standard extension to say what plan this is being done for. However it doesn't link to the step of that plan
                     that would mean using sub-ActivityDefintions probably -->
            <extension url="http://hl7.org/fhir/StructureDefinition/workflow-triggeredBy">
               <valueReference>
                  <reference value="ActivityDefinition/activityLongTerm25XY-18"/>
               </valueReference>
            </extension>
            <status value="final"/>
            <code>
               <text value="Test Components - Long-term 25C etc - 18 months (XY)"/>
            </code>
            <subject>
               <reference value="Medication/medication-batch-information-drug-pq-ex1"/>
            </subject>
            <effectiveDateTime value="2023-01-01T12:00:00Z"/>
            <performer>
               <reference value="Organization/tester"/>
            </performer>
            <specimen>
               <reference value="Specimen/stability18months-1"/>
            </specimen>
            <hasMember>
               <reference value="#LongTerm25C-18m-1-Description"/>
            </hasMember>
            <hasMember>
               <reference value="#LongTerm25C-18m-1-Degradation-imp1"/>
            </hasMember>
            <hasMember>
               <reference value="#LongTerm25C-18m-1-Degradation-imp2"/>
            </hasMember>
            <hasMember>
               <reference value="#LongTerm25C-18m-1-Degradation-imp3"/>
            </hasMember>
            <hasMember>
               <reference value="#LongTerm25C-18m-1-Degradation-impUnspecified"/>
            </hasMember>
            <hasMember>
               <reference value="#LongTerm25C-18m-1-Degradation-impTotal"/>
            </hasMember>
            <hasMember>
               <reference value="#LongTerm25C-18m-1-Water"/>
            </hasMember>
            <hasMember>
               <reference value="#LongTerm25C-18m-1-Microbiological"/>
            </hasMember>
            <hasMember>
               <reference value="#LongTerm25C-18m-1-Uniformity"/>
            </hasMember>
         </Observation>
      </resource>
   </entry>
   <!-- Section 11 - Stability Study - Results - Test Result - Long Term XY - 18M - on batch 2 -->
   <entry>
      <fullUrl value="urn:uuid:3519f84a-2889-90a0-a6b7-ff2f1be66a73"/>
      <resource>
         <Observation>
            <id value="LongTerm25C-18m-2"/>
            <contained>
               <Observation>
                  <id value="LongTerm25C-18m-2-Description"/>
                  <instantiatesReference>
                     <reference value="ObservationDefinition/Description"/>
                  </instantiatesReference>
                  <status value="final"/>
                  <code>
                     <coding>
                        <system value="http://hl7.org/fhir/uv/pharm-quality/CodeSystem/cs-local-codes-drug-pq"/>
                        <code value="DESC"/>
                        <display value="Description"/>
                     </coding>
                     <text value="Description"/>
                  </code>
                  <subject>
                     <reference value="Medication/medication-actual-batch-2"/>
                  </subject>
                  <effectiveDateTime value="2023-01-01T12:00:00Z"/>
                  <performer>
                     <reference value="Organization/tester"/>
                  </performer>
                  <valueCodeableConcept>
                     <text value="Complies"/>
                  </valueCodeableConcept>
               </Observation>
            </contained>
            <contained>
               <Observation>
                  <id value="LongTerm25C-18m-2-Microbiological"/>
                  <instantiatesReference>
                     <reference value="ObservationDefinition/Microbiological"/>
                  </instantiatesReference>
                  <status value="final"/>
                  <code>
                     <coding>
                        <system value="http://hl7.org/fhir/uv/pharm-quality/CodeSystem/cs-local-codes-drug-pq"/>
                        <code value="Microbiological Quality"/>
                        <display value="Microbiological Quality"/>
                     </coding>
                  </code>
                  <subject>
                     <reference value="Medication/medication-actual-batch-2"/>
                  </subject>
                  <effectiveDateTime value="2023-01-01T12:00:00Z"/>
                  <performer>
                     <reference value="Organization/tester"/>
                  </performer>
                  <valueString value="Does not comply"/>
               </Observation>
            </contained>
            <!-- use a standard extension to say what plan this is being done for. However it doesn't link to the step of that plan
                     that would mean using sub-ActivityDefintions probably -->
            <extension url="http://hl7.org/fhir/StructureDefinition/workflow-triggeredBy">
               <valueReference>
                  <reference value="ActivityDefinition/activityLongTerm25XY-18"/>
               </valueReference>
            </extension>
            <status value="final"/>
            <code>
               <text value="Test Components - Long-term 25C etc - 18 months (XY)"/>
            </code>
            <subject>
               <reference value="Medication/medication-actual-batch-2"/>
            </subject>
            <effectiveDateTime value="2023-01-01T12:00:00Z"/>
            <performer>
               <reference value="Organization/tester"/>
            </performer>
            <specimen>
               <reference value="Specimen/stability18months-2"/>
            </specimen>
            <hasMember>
               <reference value="#LongTerm25C-18m-2-Description"/>
            </hasMember>
            <hasMember>
               <reference value="#LongTerm25C-18m-2-Microbiological"/>
            </hasMember>
         </Observation>
      </resource>
   </entry>
   <!-- Section 11 - Stability Study - Results - Test Result - Long Term XY - 18M - on batch 3 -->
   <entry>
      <fullUrl value="urn:uuid:2ef362f1-0b65-3578-7f06-fbd74a24694a"/>
      <resource>
         <Observation>
            <id value="LongTerm25C-18m-3"/>
            <contained>
               <Observation>
                  <id value="LongTerm25C-18m-3-Description"/>
                  <instantiatesReference>
                     <reference value="ObservationDefinition/Description"/>
                  </instantiatesReference>
                  <status value="final"/>
                  <code>
                     <coding>
                        <system value="http://hl7.org/fhir/uv/pharm-quality/CodeSystem/cs-local-codes-drug-pq"/>
                        <code value="DESC"/>
                        <display value="Description"/>
                     </coding>
                     <text value="Description"/>
                  </code>
                  <subject>
                     <reference value="Medication/medication-actual-batch-3"/>
                  </subject>
                  <effectiveDateTime value="2023-01-01T12:00:00Z"/>
                  <performer>
                     <reference value="Organization/tester"/>
                  </performer>
                  <valueCodeableConcept>
                     <text value="Complies"/>
                  </valueCodeableConcept>
               </Observation>
            </contained>
            <contained>
               <Observation>
                  <id value="LongTerm25C-18m-3-Microbiological"/>
                  <instantiatesReference>
                     <reference value="ObservationDefinition/Microbiological"/>
                  </instantiatesReference>
                  <status value="final"/>
                  <code>
                     <coding>
                        <system value="http://hl7.org/fhir/uv/pharm-quality/CodeSystem/cs-local-codes-drug-pq"/>
                        <code value="Microbiological Quality"/>
                        <display value="Microbiological Quality"/>
                     </coding>
                  </code>
                  <subject>
                     <reference value="Medication/medication-actual-batch-3"/>
                  </subject>
                  <effectiveDateTime value="2023-01-01T12:00:00Z"/>
                  <performer>
                     <reference value="Organization/tester"/>
                  </performer>
                  <valueString value="Does not comply"/>
               </Observation>
            </contained>
            <!-- use a standard extension to say what plan this is being done for. However it doesn't link to the step of that plan
                     that would mean using sub-ActivityDefintions probably -->
            <extension url="http://hl7.org/fhir/StructureDefinition/workflow-triggeredBy">
               <valueReference>
                  <reference value="ActivityDefinition/activityLongTerm25XY-18"/>
               </valueReference>
            </extension>
            <status value="final"/>
            <code>
               <text value="Test Components - Long-term 25C etc - 18 months (XY)"/>
            </code>
            <subject>
               <reference value="Medication/medication-actual-batch-3"/>
            </subject>
            <effectiveDateTime value="2023-01-01T12:00:00Z"/>
            <performer>
               <reference value="Organization/tester"/>
            </performer>
            <specimen>
               <reference value="Specimen/stability18months-3"/>
            </specimen>
            <hasMember>
               <reference value="#LongTerm25C-18m-3-Description"/>
            </hasMember>
            <hasMember>
               <reference value="#LongTerm25C-18m-3-Microbiological"/>
            </hasMember>
         </Observation>
      </resource>
   </entry>
   <!-- specimen -->
   <entry>
      <fullUrl value="urn:uuid:8a7771db-5cc0-33f8-966a-b2f792bf5785"/>
      <resource>
         <Specimen>
            <id value="stabilityInitialAcc-3"/>
            <collection>
               <collectedDateTime value="2020-12-01"/>
               <!-- when sample first taken, before the timed periods start -->
            </collection>
            <processing>
               <description value="Store for 3 months"/>
               <timePeriod>
                  <extension url="http://hl7.org/fhir/uv/pharm-quality/StructureDefinition/Extension-batch-storage-duration-pq">
                     <valueDuration>
                        <value value="18"/>
                        <unit value="month"/>
                     </valueDuration>
                  </extension>
                  <start value="2020-12"/>
                  <end value="2021-03"/>
                  <!-- 3 months -->
               </timePeriod>
            </processing>
            <processing>
               <description value="40°C/75% RH"/>
            </processing>
         </Specimen>
      </resource>
   </entry>
   <!-- Section 11 - Stability Study - Results - Test Result - Accelerated XYZ - Initial - on batch 1 -->
   <entry>
      <fullUrl value="urn:uuid:72e0640b-094b-909e-5268-3dee92af4bbd"/>
      <resource>
         <Observation>
            <id value="Accelerated40C-3-1"/>
            <contained>
               <Observation>
                  <id value="Accelerated40C-3-1-Description"/>
                  <instantiatesReference>
                     <reference value="ObservationDefinition/Description"/>
                  </instantiatesReference>
                  <status value="final"/>
                  <code>
                     <coding>
                        <system value="http://hl7.org/fhir/uv/pharm-quality/CodeSystem/cs-local-codes-drug-pq"/>
                        <code value="DESC"/>
                        <display value="Description"/>
                     </coding>
                     <text value="Description"/>
                  </code>
                  <subject>
                     <reference value="Medication/medication-batch-information-drug-pq-ex1"/>
                  </subject>
                  <effectiveDateTime value="2023-01-01T12:00:00Z"/>
                  <performer>
                     <reference value="Organization/tester"/>
                  </performer>
                  <valueCodeableConcept>
                     <text value="Complies"/>
                  </valueCodeableConcept>
               </Observation>
            </contained>
            <contained>
               <Observation>
                  <id value="Accelerated40C-3-1-Degradation-imp1"/>
                  <instantiatesReference>
                     <reference value="ObservationDefinition/Degradation"/>
                  </instantiatesReference>
                  <status value="final"/>
                  <code>
                     <coding>
                        <system value="http://hl7.org/fhir/uv/pharm-quality/CodeSystem/cs-local-codes-drug-pq"/>
                        <code value="DGP"/>
                        <display value="Degradation Products"/>
                     </coding>
                     <text value="Degradation Products"/>
                  </code>
                  <subject>
                     <reference value="Medication/medication-batch-information-drug-pq-ex1"/>
                  </subject>
                  <effectiveDateTime value="2023-01-01T12:00:00Z"/>
                  <performer>
                     <reference value="Organization/tester"/>
                  </performer>
                  <valueQuantity>
                     <value value="0.143"/>
                     <unit value="% w/w"/>
                     <system value="http://unitsofmeasure.org"/>
                     <code value="%"/>
                  </valueQuantity>
                  <component>
                     <code>
                        <coding>
                           <system value="http://hl7.org/fhir/uv/pharm-quality/CodeSystem/cs-local-codes-drug-pq"/>
                           <code value="IMP"/>
                           <display value="Impurity"/>
                        </coding>
                     </code>
                     <valueCodeableConcept>
                    			<!-- could have the code of an impurity substance, or could have an extension to point to it as a resource -->
                        <text value="Impurity 1"/>
                     </valueCodeableConcept>
                  </component>
               </Observation>
            </contained>
            <contained>
               <Observation>
                  <id value="Accelerated40C-3-1-Degradation-imp2"/>
                  <instantiatesReference>
                     <reference value="ObservationDefinition/Degradation"/>
                  </instantiatesReference>
                  <status value="final"/>
                  <code>
                     <coding>
                        <system value="http://hl7.org/fhir/uv/pharm-quality/CodeSystem/cs-local-codes-drug-pq"/>
                        <code value="DGP"/>
                        <display value="Degradation Products"/>
                     </coding>
                     <text value="Degradation Products"/>
                  </code>
                  <subject>
                     <reference value="Medication/medication-batch-information-drug-pq-ex1"/>
                  </subject>
                  <effectiveDateTime value="2023-01-01T12:00:00Z"/>
                  <performer>
                     <reference value="Organization/tester"/>
                  </performer>
                  <valueQuantity>
                     <value value="0.243"/>
                     <unit value="% w/w"/>
                     <system value="http://unitsofmeasure.org"/>
                     <code value="%"/>
                  </valueQuantity>
                  <component>
                     <code>
                        <coding>
                           <system value="http://hl7.org/fhir/uv/pharm-quality/CodeSystem/cs-local-codes-drug-pq"/>
                           <code value="IMP"/>
                           <display value="Impurity"/>
                        </coding>
                     </code>
                     <valueCodeableConcept>
            					<!-- could have the code of an impurity substance, or could have an extension to point to it as a resource -->
                        <text value="Impurity 2"/>
                     </valueCodeableConcept>
                  </component>
               </Observation>
            </contained>
            <contained>
               <Observation>
                  <id value="Accelerated40C-3-1-Degradation-imp3"/>
                  <instantiatesReference>
                     <reference value="ObservationDefinition/Degradation"/>
                  </instantiatesReference>
                  <status value="final"/>
                  <code>
                     <coding>
                        <system value="http://hl7.org/fhir/uv/pharm-quality/CodeSystem/cs-local-codes-drug-pq"/>
                        <code value="DGP"/>
                        <display value="Degradation Products"/>
                     </coding>
                     <text value="Degradation Products"/>
                  </code>
                  <subject>
                     <reference value="Medication/medication-batch-information-drug-pq-ex1"/>
                  </subject>
                  <effectiveDateTime value="2023-01-01T12:00:00Z"/>
                  <performer>
                     <reference value="Organization/tester"/>
                  </performer>
                  <valueQuantity>
                     <value value="0.201"/>
                     <unit value="% w/w"/>
                     <system value="http://unitsofmeasure.org"/>
                     <code value="%"/>
                  </valueQuantity>
                  <component>
                     <code>
                        <coding>
                           <system value="http://hl7.org/fhir/uv/pharm-quality/CodeSystem/cs-local-codes-drug-pq"/>
                           <code value="IMP"/>
                           <display value="Impurity"/>
                        </coding>
                     </code>
                     <valueCodeableConcept>
                        <text value="Impurity 3"/>
                     </valueCodeableConcept>
                  </component>
               </Observation>
            </contained>
            <contained>
               <Observation>
                  <id value="Accelerated40C-3-1-Degradation-impUnspecified"/>
                  <instantiatesReference>
                     <reference value="ObservationDefinition/Degradation"/>
                  </instantiatesReference>
                  <status value="final"/>
                  <code>
                     <coding>
                        <system value="http://hl7.org/fhir/uv/pharm-quality/CodeSystem/cs-local-codes-drug-pq"/>
                        <code value="DGP"/>
                        <display value="Degradation Products"/>
                     </coding>
                     <text value="Degradation Products"/>
                  </code>
                  <subject>
                     <reference value="Medication/medication-batch-information-drug-pq-ex1"/>
                  </subject>
                  <effectiveDateTime value="2023-01-01T12:00:00Z"/>
                  <performer>
                     <reference value="Organization/tester"/>
                  </performer>
                  <valueQuantity>
                     <value value="0.101"/>
                     <comparator value="&lt;"/>
                     <unit value="% w/w"/>
                     <system value="http://unitsofmeasure.org"/>
                     <code value="%"/>
                  </valueQuantity>
                  <component>
                     <code>
                        <coding>
                           <system value="http://hl7.org/fhir/uv/pharm-quality/CodeSystem/cs-local-codes-drug-pq"/>
                           <code value="IMP"/>
                           <display value="Impurity"/>
                        </coding>
                     </code>
                     <valueCodeableConcept>
                        <text value="Any Unspecified Degradation Impurity"/>
                     </valueCodeableConcept>
                  </component>
               </Observation>
            </contained>
            <contained>
               <Observation>
                  <id value="Accelerated40C-3-1-Degradation-impTotal"/>
                  <instantiatesReference>
                     <reference value="ObservationDefinition/Degradation"/>
                  </instantiatesReference>
                  <status value="final"/>
                  <code>
                     <coding>
                        <system value="http://hl7.org/fhir/uv/pharm-quality/CodeSystem/cs-local-codes-drug-pq"/>
                        <code value="DGP"/>
                        <display value="Degradation Products"/>
                     </coding>
                     <text value="Degradation Products"/>
                  </code>
                  <subject>
                     <reference value="Medication/medication-batch-information-drug-pq-ex1"/>
                  </subject>
                  <effectiveDateTime value="2023-01-01T12:00:00Z"/>
                  <performer>
                     <reference value="Organization/tester"/>
                  </performer>
                  <valueQuantity>
                     <value value="0.801"/>
                     <unit value="% w/w"/>
                     <system value="http://unitsofmeasure.org"/>
                     <code value="%"/>
                  </valueQuantity>
                  <component>
                     <code>
                        <coding>
                           <system value="http://hl7.org/fhir/uv/pharm-quality/CodeSystem/cs-local-codes-drug-pq"/>
                           <code value="IMP"/>
                           <display value="Impurity"/>
                        </coding>
                     </code>
                     <valueCodeableConcept>
                        <text value="Total Degradation Impurities"/>
                     </valueCodeableConcept>
                  </component>
               </Observation>
            </contained>
            <contained>
               <Observation>
                  <id value="Accelerated40C-3-1-Water"/>
                  <instantiatesReference>
                     <reference value="ObservationDefinition/Water"/>
                  </instantiatesReference>
                  <status value="final"/>
                  <code>
                     <coding>
                        <system value="http://hl7.org/fhir/uv/pharm-quality/CodeSystem/cs-local-codes-drug-pq"/>
                        <code value="WaterContent"/>
                        <display value="Water Content"/>
                     </coding>
                  </code>
                  <subject>
                     <reference value="Medication/medication-batch-information-drug-pq-ex1"/>
                  </subject>
                  <effectiveDateTime value="2023-01-01T12:00:00Z"/>
                  <performer>
                     <reference value="Organization/tester"/>
                  </performer>
                  <valueQuantity>
                     <value value="0.1501"/>
                     <unit value="% w/w"/>
                     <system value="http://unitsofmeasure.org"/>
                     <code value="%"/>
                  </valueQuantity>
               </Observation>
            </contained>
            <contained>
               <Observation>
                  <id value="Accelerated40C-3-1-Microbiological"/>
                  <instantiatesReference>
                     <reference value="ObservationDefinition/Microbiological"/>
                  </instantiatesReference>
                  <status value="final"/>
                  <code>
                     <coding>
                        <system value="http://hl7.org/fhir/uv/pharm-quality/CodeSystem/cs-local-codes-drug-pq"/>
                        <code value="Microbiological Quality"/>
                        <display value="Microbiological Quality"/>
                     </coding>
                  </code>
                  <subject>
                     <reference value="Medication/medication-batch-information-drug-pq-ex1"/>
                  </subject>
                  <effectiveDateTime value="2023-01-01T12:00:00Z"/>
                  <performer>
                     <reference value="Organization/tester"/>
                  </performer>
                  <valueCodeableConcept>
                     <text value="Complies"/>
                  </valueCodeableConcept>
               </Observation>
            </contained>
            <contained>
               <Observation>
                  <id value="Accelerated40C-3-1-Uniformity"/>
                  <instantiatesReference>
                     <reference value="ObservationDefinition/Uniformity"/>
                  </instantiatesReference>
                  <status value="final"/>
                  <code>
                     <coding>
                        <system value="http://hl7.org/fhir/uv/pharm-quality/CodeSystem/cs-local-codes-drug-pq"/>
                        <code value="uniformity-dosage"/>
                        <display value="Uniformity of dosage units (by weight)"/>
                     </coding>
                  </code>
                  <subject>
                     <reference value="Medication/medication-batch-information-drug-pq-ex1"/>
                  </subject>
                  <effectiveDateTime value="2023-01-01T12:00:00Z"/>
                  <performer>
                     <reference value="Organization/tester"/>
                  </performer>
                  <valueCodeableConcept>
                     <text value="Complies"/>
                  </valueCodeableConcept>
               </Observation>
            </contained>
            <!-- use a standard extension to say what plan this is being done for. However it doesn't link to the step of that plan
                     that would mean using sub-ActivityDefintions probably -->
            <extension url="http://hl7.org/fhir/StructureDefinition/workflow-triggeredBy">
               <valueReference>
                  <reference value="ActivityDefinition/activityAccelerated40X-3"/>
               </valueReference>
            </extension>
            <status value="final"/>
            <code>
               <text value="Test Components - Accelerated 40C etc - 3 Months (X)"/>
            </code>
            <subject>
               <reference value="Medication/medication-batch-information-drug-pq-ex1"/>
            </subject>
            <effectiveDateTime value="2023-01-01T12:00:00Z"/>
            <performer>
               <reference value="Organization/tester"/>
            </performer>
            <specimen>
               <reference value="Specimen/stabilityInitialAcc-3"/>
            </specimen>
            <hasMember>
               <reference value="#Accelerated40C-3-1-Description"/>
            </hasMember>
            <hasMember>
               <reference value="#Accelerated40C-3-1-Degradation-imp1"/>
            </hasMember>
            <hasMember>
               <reference value="#Accelerated40C-3-1-Degradation-imp2"/>
            </hasMember>
            <hasMember>
               <reference value="#Accelerated40C-3-1-Degradation-imp3"/>
            </hasMember>
            <hasMember>
               <reference value="#Accelerated40C-3-1-Degradation-impUnspecified"/>
            </hasMember>
            <hasMember>
               <reference value="#Accelerated40C-3-1-Degradation-impTotal"/>
            </hasMember>
            <hasMember>
               <reference value="#Accelerated40C-3-1-Water"/>
            </hasMember>
            <hasMember>
               <reference value="#Accelerated40C-3-1-Microbiological"/>
            </hasMember>
            <hasMember>
               <reference value="#Accelerated40C-3-1-Uniformity"/>
            </hasMember>
         </Observation>
      </resource>
   </entry>
   <!-- Section 8 - Batch or Lot Information (batch 1 of 3) -->
   <entry>
      <fullUrl value="urn:uuid:7ef62d57-7cc6-9211-66d6-abc7e096093c"/>
      <resource>
         <Medication>
            <id value="medication-batch-information-drug-pq-ex1"/>
            <meta>
               <profile value="http://hl7.org/fhir/uv/pharm-quality/StructureDefinition/Medication-batch-information-drug-pq"/>
            </meta>
            <code>
               <extension url="http://hl7.org/fhir/uv/pharm-quality/StructureDefinition/Extension-medication-definition-pq">
                  <valueReference> 
                     <reference value="MedicinalProductDefinition/medicinalproductdefinition-drug-product-pq-ex1"/>
                  </valueReference>
               </extension>
            </code>
            <batch>
               <extension url="http://hl7.org/fhir/StructureDefinition/medication-manufacturingBatch">
                  <extension url="manufacturingDate">
                     <valueDateTime value="2020-06"/>
                  </extension>
                  <extension url="batchQuantity">
                     <valueQuantity>
                        <value value="100100"/>
                        <unit value="tablets"/>
                     </valueQuantity>
                  </extension>
                  <extension url="batchUtilization">
                     <valueCodeableConcept>
                        <coding>
                           <system value="http://ncicb.nci.nih.gov/xml/owl/EVS/Thesaurus.owl"/>
                           <code value="C133990"/>
                           <display value="Commercial"/>
                           <!-- could also be C185328 Stability Study? -->
                        </coding>
                        <text value="Production"/>
                     </valueCodeableConcept>
                  </extension>
                  <extension url="assignedManufacturer">
                     <valueReference>
                        <reference value="Organization/organization-drug-pq-ex1"/>
                     </valueReference>
                  </extension>
                  <extension url="container">
                     <extension url="type">
                        <valueCodeableConcept>
                           <text value="100 cc HDPE Bottle 2 g desiccant"/>
                        </valueCodeableConcept>
                     </extension>
                     <extension url="closureSystemDescription">
                        <valueString value="Standard closure"/>
                     </extension>
                  </extension>
               </extension>
               <!-- local extensions -->
               <extension url="http://hl7.org/fhir/uv/pharm-quality/StructureDefinition/Extension-batch-release-date-pq">
                  <valueDateTime value="2019-09-08"/>
               </extension>
               <extension url="http://hl7.org/fhir/uv/pharm-quality/StructureDefinition/Extension-batch-substance-batch-pq">
                  <valueReference>
                     <reference value="Substance/substance-dxpq-ex1"/>
                  </valueReference>
               </extension>
               <extension url="http://hl7.org/fhir/uv/pharm-quality/StructureDefinition/Extension-packaging-date-pq">
                  <valueDateTime value="2020-08"/>
               </extension>
               <extension url="http://hl7.org/fhir/uv/pharm-quality/StructureDefinition/Extension-packaging-site-pq">
                  <valueReference>
                     <reference value="Organization/packaging"/>
                  </valueReference>
               </extension>
               <extension url="http://hl7.org/fhir/uv/pharm-quality/StructureDefinition/Extension-actual-yield-pq">
                  <valueQuantity>
                     <value value="4.8"/>
                     <unit value="kg"/>
                  </valueQuantity>
               </extension>
               <lotNumber value="33445"/>
            </batch>
         </Medication>
      </resource>
   </entry>
   <!-- Section 8 - Batch or Lot Information (another batch 2 of 3) -->
   <entry>
      <fullUrl value="urn:uuid:8306cfc5-158f-1a53-a683-048b226060d9"/>
      <resource>
         <Medication>
            <id value="medication-actual-batch-2"/>
            <code>
               <extension url="http://hl7.org/fhir/uv/pharm-quality/StructureDefinition/Extension-medication-definition-pq">
                  <valueReference>
                     <reference value="MedicinalProductDefinition/medicinalproductdefinition-drug-product-pq-ex1"/>
                  </valueReference>
               </extension>
            </code>
            <batch>
               <extension url="http://hl7.org/fhir/StructureDefinition/medication-manufacturingBatch">
                  <extension url="manufacturingDate">
                     <valueDateTime value="2020-06"/>
                  </extension>
                  <extension url="batchQuantity">
                     <valueQuantity>
                        <value value="100050"/>
                        <unit value="tablets"/>
                     </valueQuantity>
                  </extension>
                  <extension url="batchUtilization">
                     <valueCodeableConcept>
                        <coding>
                           <system value="http://ncicb.nci.nih.gov/xml/owl/EVS/Thesaurus.owl"/>
                           <code value="C133990"/>
                           <display value="Commercial"/>
                           <!-- could also be C185328 Stability Study? -->
                        </coding>
                        <text value="Production"/>
                     </valueCodeableConcept>
                  </extension>
                  <extension url="assignedManufacturer">
                     <valueReference>
                        <reference value="Organization/manufacturer"/>
                     </valueReference>
                  </extension>
                  <extension url="container">
                     <extension url="type">
                        <valueCodeableConcept>
                           <text value="100 cc HDPE Bottle 2 g desiccant"/>
                        </valueCodeableConcept>
                     </extension>
                  </extension>
               </extension>
               <!-- local extensions -->
               <extension url="http://hl7.org/fhir/uv/pharm-quality/StructureDefinition/Extension-batch-release-date-pq">
                  <valueDateTime value="2019-09-08"/>
               </extension>
               <extension url="http://hl7.org/fhir/uv/pharm-quality/StructureDefinition/Extension-batch-substance-batch-pq">
                  <valueReference>
                     <reference value="Substance/actual-batch-substance-2"/>
                  </valueReference>
               </extension>
               <extension url="http://hl7.org/fhir/uv/pharm-quality/StructureDefinition/Extension-packaging-date-pq">
                  <valueDateTime value="2020-08"/>
               </extension>
               <extension url="http://hl7.org/fhir/uv/pharm-quality/StructureDefinition/Extension-packaging-site-pq">
                  <valueReference>
                     <reference value="Organization/packaging"/>
                  </valueReference>
               </extension>
               <extension url="http://hl7.org/fhir/uv/pharm-quality/StructureDefinition/Extension-actual-yield-pq">
                  <valueQuantity>
                     <value value="4.8"/>
                     <unit value="kg"/>
                  </valueQuantity>
               </extension>
               <lotNumber value="33446"/>
            </batch>
         </Medication>
      </resource>
   </entry>
   <!-- Section 8 - Batch or Lot Information (another batch 3 of 3) -->
   <entry>
      <fullUrl value="urn:uuid:f54d4666-7ae3-4e30-8c5a-6d13838c4f3b"/>
      <resource>
         <Medication>
            <id value="medication-actual-batch-3"/>
            <code>
               <extension url="http://hl7.org/fhir/uv/pharm-quality/StructureDefinition/Extension-medication-definition-pq">
                  <valueReference>
                     <reference value="MedicinalProductDefinition/medicinalproductdefinition-drug-product-pq-ex1"/>
                  </valueReference>
               </extension>
            </code>
            <batch>
               <extension url="http://hl7.org/fhir/StructureDefinition/medication-manufacturingBatch">
                  <extension url="manufacturingDate">
                     <valueDateTime value="2020-06"/>
                  </extension>
                  <extension url="batchQuantity">
                     <valueQuantity>
                        <value value="100125"/>
                        <unit value="tablets"/>
                     </valueQuantity>
                  </extension>
                  <extension url="batchUtilization">
                     <valueCodeableConcept>
                        <coding>
                           <system value="http://ncicb.nci.nih.gov/xml/owl/EVS/Thesaurus.owl"/>
                           <code value="C133990"/>
                           <display value="Commercial"/>
                           <!-- could also be C185328 Stability Study? -->
                        </coding>
                        <text value="Production"/>
                     </valueCodeableConcept>
                  </extension>
                  <extension url="assignedManufacturer">
                     <valueReference>
                        <reference value="Organization/manufacturer"/>
                     </valueReference>
                  </extension>
                  <extension url="container">
                     <extension url="type">
                        <valueCodeableConcept>
                           <text value="100 cc HDPE Bottle 2 g desiccant"/>
                        </valueCodeableConcept>
                     </extension>
                  </extension>
               </extension>
               <!-- local extensions -->
               <extension url="http://hl7.org/fhir/uv/pharm-quality/StructureDefinition/Extension-batch-release-date-pq">
                  <valueDateTime value="2019-09-08"/>
               </extension>
               <extension url="http://hl7.org/fhir/uv/pharm-quality/StructureDefinition/Extension-batch-substance-batch-pq">
                  <valueReference>
                     <reference value="Substance/actual-batch-substance-3"/>
                  </valueReference>
               </extension>
               <extension url="http://hl7.org/fhir/uv/pharm-quality/StructureDefinition/Extension-packaging-date-pq">
                  <valueDateTime value="2020-08"/>
               </extension>
               <extension url="http://hl7.org/fhir/uv/pharm-quality/StructureDefinition/Extension-packaging-site-pq">
                  <valueReference>
                     <reference value="Organization/packaging"/>
                  </valueReference>
               </extension>
               <extension url="http://hl7.org/fhir/uv/pharm-quality/StructureDefinition/Extension-actual-yield-pq">
                  <valueQuantity>
                     <value value="4.8"/>
                     <unit value="kg"/>
                  </valueQuantity>
               </extension>
               <lotNumber value="33447"/>
            </batch>
         </Medication>
      </resource>
   </entry>
   <!-- Section 4.1 - Manufacturer -->
   <entry>
      <fullUrl value="urn:uuid:033ce81d-5f0d-7a3e-93d3-fc64e122a1fd"/>
      <resource>
         <Organization>
            <id value="manufacturer"/>
            <identifier>
                    <!-- FDA establishment identifier -->
               <system value="urn:oid:2.16.840.1.113883.4.82"/>
               <value value="3010027650"/>
            </identifier>
            <name value="AAA Pharmaceutical, Inc."/>
            <!--contact>
                    <address></address>
                </contact-->
            <contact>
               <address> 
                  <line value="681 Main Street"/>
                  <city value="Lumberton"/>
                  <state value="New Jersey"/>
                  <postalCode value="08048"/>
                  <country value="USA"/>
               </address>
            </contact>
         </Organization>
      </resource>
   </entry>
   <entry>
      <fullUrl value="urn:uuid:2dd49242-4bf1-9ec1-5f1e-22ba8d4d5ccc"/>
      <resource>
         <Organization>
            <id value="packaging"/>
            <name value="MySite"/>
         </Organization>
      </resource>
   </entry>
   <!-- Section 4.2 - Testing Site -->
   <entry>
      <fullUrl value="urn:uuid:e3d2bc19-2f10-2b4d-1741-e4135fe612a9"/>
      <resource>
         <Organization>
            <id value="tester"/>
            <identifier>
               <system value="urn:oid:2.16.840.1.113883.4.82"/>
               <value value="3007270600"/>
               
            </identifier>
            <name value="Advanced Analytical Testing Laboratories Inc."/>
            <contact>
               <address>
                  <line value="30 Silverline Drive"/>
                  <city value="North Brunswick"/>
                  <state value="New Jersey"/>
                  <postalCode value="08902"/>
                  <country value="USA"/>
               </address>
            </contact>
         </Organization>
      </resource>
   </entry>
   <!-- MedicinalProductDefinition - the main resource in any product scenario -->
   <entry>
      <fullUrl value="urn:uuid:a0694a7a-aafa-4cbe-8135-c788a9a4d3d5"/>
      <resource>
            <!-- Section 1.1 - DP Identification -->
         <MedicinalProductDefinition>
            <id value="medicinalproductdefinition-drug-product-pq-ex1"/>
            <meta>
               <profile value="http://hl7.org/fhir/uv/pharm-quality/StructureDefinition/MedicinalProductDefinition-drug-product-pq"/>
            </meta>
            <description value="Textual description of the product"/>
            <combinedPharmaceuticalDoseForm>
               <coding>
                  <system value="http://standardterms.edqm.eu"/>
                  <code value="10225000"/>
                  <display value="Gastro-resistant tablet"/>
               </coding>
            </combinedPharmaceuticalDoseForm>
            <route>
               <coding>
                  <system value="http://standardterms.edqm.eu"/>
                  <code value="20053000"/>
                  <display value="Oral use"/>
               </coding>
            </route>
            <name>
               <productName value="Stelbat Tablets, 20mg"/>
               <type>
                  <coding>
                     <system value="http://hl7.org/fhir/uv/pharm-quality/CodeSystem/cs-productNameType-local-pq"/>
                     <code value="Proprietary"/>
                     <display value="Proprietary"/>
                  </coding>
               </type>
               <part>
                  <part value="20mg"/>
                  <type>
                     <coding>
                        <system value="http://hl7.org/fhir/medicinal-product-name-part-type"/>
                        <code value="StrengthPart"/>
                        <display value="Strength part"/>
                     </coding>
                  </type>
               </part>
            </name>
         </MedicinalProductDefinition>
      </resource>
   </entry>
   <entry>
      <fullUrl value="urn:uuid:a0694a7a-aafa-4cbe-8135-c788a9a4d3d6"/>
      <!-- manual correction of dupe -->
      <resource>
         <Ingredient>
            <id value="ingredient-drug-pq-ex1"/>
            <meta>
               <profile value="http://hl7.org/fhir/uv/pharm-quality/StructureDefinition/Ingredient-drug-pq"/>
            </meta>
            <status value="active"/>
            <for>
               <reference value="MedicinalProductDefinition/medicinalproductdefinition-drug-product-pq-ex1"/>
            </for>
            <role>
               <coding>
                  <system value="http://hl7.org/fhir/ingredient-role"/>
                  <code value="100000072072"/>
                  <display value="Active"/>
               </coding>
            </role>
            <substance>
               <code>
                  <reference>
                     <reference value="SubstanceDefinition/substancedefinition-component-substance-drug-pq-ex1"/>
                  </reference>
               </code>
            </substance>
         </Ingredient>
      </resource>
   </entry>
   <entry>
      <fullUrl value="urn:uuid:57a9af63-315d-1585-a261-0e337b289390"/>
      <resource>
         <SubstanceDefinition>
            <id value="substancedefinition-component-substance-drug-pq-ex1"/>
            <meta>
               <profile value="http://hl7.org/fhir/uv/pharm-quality/StructureDefinition/SubstanceDefinition-component-substance-drug-pq"/>
            </meta>
            <manufacturer>
               <reference value="Organization/organization-drug-pq-ex1"/>
            </manufacturer>
            <name>
               <name value="Stelbatolol"/>
            </name>
         </SubstanceDefinition>
      </resource>
   </entry>
   <entry>
      <fullUrl value="urn:uuid:49d2f0c0-4b28-9271-8aaf-2996a8b9739c"/>
      <resource>
         <Organization>
            <id value="organization-drug-pq-ex1"/>
            <meta>
               <profile value="http://hl7.org/fhir/uv/pharm-quality/StructureDefinition/Organization-drug-pq"/>
            </meta>
            <identifier>
					<!-- FDA establishment identifier -->
               <system value="urn:oid:2.16.840.1.113883.4.82"/>
               <value value="3003040516"/>
            </identifier>
            <name value="AAA Molybdenum Products, Inc."/>
            <contact>
               <address>
                  <line value="7233 W 116th Pl"/>
                  <line value="Ste C"/>
                  <city value="Broomfield"/>
                  <state value="Colorado"/>
                  <postalCode value="80020"/>
                  <country value="USA"/>
               </address>
            </contact>
         </Organization>
      </resource>
   </entry>
   <entry>
      <fullUrl value="urn:uuid:fc078762-81c5-5656-9744-13c7ad1e595b"/>
      <resource>
         <Substance>
            <id value="substance-dxpq-ex1"/>
            <meta>
               <profile value="http://hl7.org/fhir/uv/pharm-quality/StructureDefinition/Substance-drug-pq"/>
            </meta>
            <extension url="http://hl7.org/fhir/StructureDefinition/medication-manufacturingBatch">
               <extension url="manufacturingDate">
                  <valueDateTime value="2019-09-07"/>
               </extension>
               <extension url="batchQuantity">
                  <valueQuantity>
                     <value value="5"/>
                     <unit value="kg"/>
                  </valueQuantity>
               </extension>
               <extension url="batchUtilization">
                  <valueCodeableConcept>
                     <coding>
                        <system value="http://ncicb.nci.nih.gov/xml/owl/EVS/Thesaurus.owl"/>
                        <code value="C133991"/>
                        <display value="Development"/>
                     </coding>
                  </valueCodeableConcept>
               </extension>
               <extension url="assignedManufacturer">
                  <valueReference>
                     <reference value="Organization/organization-drug-pq-ex1"/>
                  </valueReference>
               </extension>
            </extension>
            <!-- local extensions -->
            <extension url="http://hl7.org/fhir/uv/pharm-quality/StructureDefinition/Extension-batch-release-date-pq">
               <valueDateTime value="2019-09-08"/>
            </extension>
            <extension url="http://hl7.org/fhir/uv/pharm-quality/StructureDefinition/Extension-batch-retest-date-pq">
               <valueDateTime value="2022-09-08"/>
            </extension>
            <extension url="http://hl7.org/fhir/uv/pharm-quality/StructureDefinition/Extension-actual-yield-pq">
               <valueQuantity>
                  <value value="4.8"/>
                  <unit value="kg"/>
               </valueQuantity>
            </extension>
            <identifier>
               <value value="CAT1"/>
            </identifier>
            <instance value="true"/>
            <code>
               <reference>
                  <reference value="SubstanceDefinition/substancedefinition-component-substance-drug-pq-ex1"/>
               </reference>
            </code>
         </Substance>
      </resource>
   </entry>
   <entry>
      <fullUrl value="urn:uuid:cb31d747-2338-88d5-342c-8e9c097e4dad"/>
      <resource>
         <Substance>
            <id value="actual-batch-substance-2"/>
            <extension url="http://hl7.org/fhir/StructureDefinition/medication-manufacturingBatch">
               <extension url="manufacturingDate">
                  <valueDateTime value="2019-09-07"/>
               </extension>
               <extension url="batchQuantity">
                  <valueQuantity>
                     <value value="5"/>
                     <unit value="kg"/>
                  </valueQuantity>
               </extension>
               <extension url="batchUtilization">
                  <valueCodeableConcept>
                     <coding>
                        <system value="http://ncicb.nci.nih.gov/xml/owl/EVS/Thesaurus.owl"/>
                        <code value="C133991"/>
                        <display value="Development"/>
                     </coding>
                  </valueCodeableConcept>
               </extension>
               <extension url="assignedManufacturer">
                  <valueReference>
                     <reference value="Organization/organization-drug-pq-ex1"/>
                  </valueReference>
               </extension>
            </extension>
            <!-- local extensions -->
            <extension url="http://hl7.org/fhir/uv/pharm-quality/StructureDefinition/Extension-batch-release-date-pq">
               <valueDateTime value="2019-09-08"/>
            </extension>
            <extension url="http://hl7.org/fhir/uv/pharm-quality/StructureDefinition/Extension-batch-retest-date-pq">
               <valueDateTime value="2022-09-08"/>
            </extension>
            <extension url="http://hl7.org/fhir/uv/pharm-quality/StructureDefinition/Extension-actual-yield-pq">
               <valueQuantity>
                  <value value="4.8"/>
                  <unit value="kg"/>
               </valueQuantity>
            </extension>
            <identifier>
               <value value="CAT2"/>
            </identifier>
            <instance value="true"/>
            <code>
               <reference>
                  <reference value="SubstanceDefinition/substancedefinition-component-substance-drug-pq-ex1"/>
               </reference>
            </code>
         </Substance>
      </resource>
   </entry>
   <entry>
      <fullUrl value="urn:uuid:1551f97b-6f6d-825e-1fb3-44b0b090808c"/>
      <resource>
         <Substance>
            <id value="actual-batch-substance-3"/>
            <extension url="http://hl7.org/fhir/StructureDefinition/medication-manufacturingBatch">
               <extension url="manufacturingDate">
                  <valueDateTime value="2019-09-07"/>
               </extension>
               <extension url="batchQuantity">
                  <valueQuantity>
                     <value value="5"/>
                     <unit value="kg"/>
                  </valueQuantity>
               </extension>
               <extension url="batchUtilization">
                  <valueCodeableConcept>
                     <coding>
                        <system value="http://ncicb.nci.nih.gov/xml/owl/EVS/Thesaurus.owl"/>
                        <code value="C133991"/>
                        <display value="Development"/>
                     </coding>
                  </valueCodeableConcept>
               </extension>
               <extension url="assignedManufacturer">
                  <valueReference>
                     <reference value="Organization/organization-drug-pq-ex1"/>
                  </valueReference>
               </extension>
            </extension>
            <!-- local extensions -->
            <extension url="http://hl7.org/fhir/uv/pharm-quality/StructureDefinition/Extension-batch-release-date-pq">
               <valueDateTime value="2019-09-08"/>
            </extension>
            <extension url="http://hl7.org/fhir/uv/pharm-quality/StructureDefinition/Extension-batch-retest-date-pq">
               <valueDateTime value="2022-09-08"/>
            </extension>
            <extension url="http://hl7.org/fhir/uv/pharm-quality/StructureDefinition/Extension-actual-yield-pq">
               <valueQuantity>
                  <value value="4.8"/>
                  <unit value="kg"/>
               </valueQuantity>
            </extension>
            <identifier>
               <value value="CAT3"/>
            </identifier>
            <instance value="true"/>
            <code>
               <reference>
                  <reference value="SubstanceDefinition/substancedefinition-component-substance-drug-pq-ex1"/>
               </reference>
            </code>
         </Substance>
      </resource>
   </entry>
</Bundle>