<?xml version="1.0" encoding="UTF-8"?>
<Bundle xmlns="http://hl7.org/fhir">
    <!-- Substance Process Validation -->
   <id value="bundle-product-process-validation-pq-ex2-sub"/>
   <meta>
      <profile value="http://hl7.org/fhir/uv/pharm-quality/StructureDefinition/Bundle-product-process-validation-pq"/>
   </meta>
   <type value="collection"/>
   <entry>
      <fullUrl value="urn:uuid:2038e4c7-22b8-4c56-2d28-6c077648763f"/>
      <resource>
         <PlanDefinition>
                <!--validationProtocol-->
            <id value="2038e4c7-22b8-4c56-2d28-6c077648763f"/>
            <url value="http://example-server.com/fhir/PlanDefinition/2038e4c7-22b8-4c56-2d28-6c077648763f"/>
            <title value="DP PROCESS VALIDATION"/>
            <type>
               <coding>
                  <system value="http://terminology.hl7.org/CodeSystem/plan-definition-type"/>
                  <code value="workflow-definition"/>
                  <display value="Workflow Definition"/>
               </coding>
               <coding>
                  <system value="http://hl7.org/fhir/uv/pharm-quality/CodeSystem/cs-planType-local-pq"/>
                  <code value="process-validation"/>
                  <display value="Process Validation"/>
               </coding>
            </type>
            <status value="active"/>
            <subjectReference>
                	<!--SubstanceDefinition/substancedefinition-component-substance-dxpq-ex1-->
               <reference value="SubstanceDefinition/57a9af63-315d-1585-a261-0e337b289390"/>
            </subjectReference>
            <description value="Pre-defined validation acceptance criteria were established based on manufacturing development data derived from process characterization studies..."/>
            <action>
               <extension url="http://hl7.org/fhir/uv/pharm-quality/StructureDefinition/Extension-process-step-scale-pq">
                  <valueCoding>
                     <system value="http://hl7.org/fhir/uv/pharm-quality/CodeSystem/cs-manufacturingStepScale-local-pq"/>
                     <code value="ABCD"/>
                     <display value="Production Scale"/>
                  </valueCoding>
               </extension>
               <extension url="http://hl7.org/fhir/uv/pharm-quality/StructureDefinition/Extension-process-parameters-pq">
                  <extension url="parameter">
                     <valueCodeableConcept>
                        <coding>
                           <system value="http://hl7.org/fhir/uv/pharm-quality/CodeSystem/cs-processParameter-local-pq"/>
                           <code value="SPEED"/>
                           <display value="Mix speed"/>
                        </coding>
                     </valueCodeableConcept>
                  </extension>
                  <extension url="value">
                     <valueQuantity>
                        <value value="1500"/>
                        <unit value="rpm"/>
                     </valueQuantity>
                  </extension>
               </extension>
               <prefix value="1"/>
               <title value="Step 1 Yield"/>
               <description value="Description of this step"/>
               <code>
                  <coding>
                     <system value="http://hl7.org/fhir/uv/pharm-quality/CodeSystem/cs-manufacturingStep-local-pq"/>
                     <code value="particleSizeReduction"/>
                     <display value="Particle Size Reduction"/>
                  </coding>
                  <!--text value="Step 2 in the process - free text is possible"/-->
               </code>
               <participant>
                  <typeReference>
                     <extension url="http://hl7.org/fhir/uv/pharm-quality/StructureDefinition/Extension-manufacturing-participant-pq">
                        <valueReference>
            						<!--SubstanceDefinition/startingMaterial-->
                           <reference value="SubstanceDefinition/c458791f-7cb8-428e-83f7-8a205f821153"/>
                        </valueReference>
                     </extension>
                     <display value="Starting material"/>
                  </typeReference>
                  <role>
                     <coding>
                        <system value="http://hl7.org/fhir/uv/pharm-quality/CodeSystem/cs-manufacturingParticipantRole-local-pq"/>
                        <code value="starting-material"/>
                        <display value="Starting Material"/>
                     </coding>
                  </role>
               </participant>
               <participant>
                  <typeReference>
                     <extension url="http://hl7.org/fhir/uv/pharm-quality/StructureDefinition/Extension-manufacturing-participant-pq">
                        <valueReference>
            						<!--SubstanceDefinition/intermediateMaterial-->
                           <reference value="SubstanceDefinition/c458791f-7cb8-428e-83f7-8a205f821155"/>
                        </valueReference>
                     </extension>
                     <display value="Intermediate material"/>
                  </typeReference>
                  <role>
                     <coding>
                        <system value="http://hl7.org/fhir/uv/pharm-quality/CodeSystem/cs-manufacturingParticipantRole-local-pq"/>
                        <code value="IntermediateMaterial"/>
                        <display value="Intermediate Material"/>
                     </coding>
                  </role>
               </participant>
               <participant>
                  <typeReference>
                     <extension url="http://hl7.org/fhir/uv/pharm-quality/StructureDefinition/Extension-manufacturing-participant-pq">
                        <valueReference>
            						<!--SubstanceDefinition/resultingMaterial-->
                           <reference value="SubstanceDefinition/c458791f-7cb8-428e-83f7-8a205f821154"/>
                        </valueReference>
                     </extension>
                     <display value="Resulting material"/>
                  </typeReference>
                  <role>
                     <coding>
                        <system value="http://hl7.org/fhir/uv/pharm-quality/CodeSystem/cs-manufacturingParticipantRole-local-pq"/>
                        <code value="ResultingMaterial"/>
                        <display value="Resulting Material"/>
                     </coding>
                  </role>
               </participant>
               <action>
                  <code>
                     <text value="Test"/>
                  </code>
                  <!--ObservationDefinition/Step1Yield-->
                  <definitionCanonical value="ObservationDefinition/fd17b5d6-9fe1-91c2-2d06-47cb5b295e72"/>
               </action>
            </action>
            <action>
               <title value="Step 1 In-Process Control Data"/>
               <code>
                  <coding>
                     <system value="http://temp.hl7.org/fhir/us/pq-cmc/CodeSystem/manufacturing-step"/>
                     <code value="Step1In-ProcessControlData"/>
                     <display value="Step 1 In-Process Control Data"/>
                  </coding>
               </code>
               <action>
                  <code>
                     <text value="Test"/>
                  </code>
                  <!--ObservationDefinition/ResidualWaterContent-->
                  <definitionCanonical value="ObservationDefinition/fc27b5d6-9fe1-91c2-2d16-57cb5b295e72"/>
               </action>
               <action>
                  <code>
                     <text value="Test"/>
                  </code>
                  <!--ObservationDefinition/ResidualStartingMaterial1byHPLC-->
                  <definitionCanonical value="ObservationDefinition/fc27b5d6-9ff1-91c2-2d16-57cb5b295e72"/>
               </action>
            </action>
            <action>
               <title value="Step 1 DS Release Testing Results"/>
               <code>
                  <coding>
                     <system value="http://temp.hl7.org/fhir/us/pq-cmc/CodeSystem/manufacturing-step"/>
                     <code value="Step1DSReleaseTestingResults"/>
                     <display value="Step 1 DS Release Testing Results"/>
                  </coding>
               </code>
               <action>
                  <code>
                     <text value="Test"/>
                  </code>
                  <!--ObservationDefinition/AppearanceSubstance-->
                  <definitionCanonical value="ObservationDefinition/fc07b5d5-9fe1-92c2-2d06-57cb5b295e72"/>
               </action>
               <action>
                  <code>
                     <text value="Test"/>
                  </code>
                  <!--ObservationDefinition/IdentificationSubstance-->
                  <definitionCanonical value="ObservationDefinition/3b1e878e-4bc9-8864-862f-e28b21233e8d"/>
               </action>
               <action>
                  <code>
                     <text value="Test"/>
                  </code>
                  <!--ObservationDefinition/AssaySubstance-->
                  <definitionCanonical value="ObservationDefinition/12e7e672-40a6-4036-3c1f-b8ba6a7d045e"/>
               </action>
            </action>
            <action>
               <extension url="http://hl7.org/fhir/uv/pharm-quality/StructureDefinition/Extension-process-step-scale-pq">
                  <valueCoding>
                     <system value="http://hl7.org/fhir/uv/pharm-quality/CodeSystem/cs-manufacturingStepScale-local-pq"/>
                     <code value="ABCD"/>
                     <display value="Production Scale"/>
                  </valueCoding>
               </extension>
               <prefix value="2"/>
               <title value="Step 2 Yield"/>
               <description value="Description of this step"/>
               <code>
                  <coding>
                     <system value="http://hl7.org/fhir/uv/pharm-quality/CodeSystem/cs-manufacturingStep-local-pq"/>
                     <code value="drying"/>
                     <display value="Drying"/>
                  </coding>
                  <!--text value="Step 2 in the process - free text is possible"/-->
               </code>
               <participant>
                  <typeReference>
                     <extension url="http://hl7.org/fhir/uv/pharm-quality/StructureDefinition/Extension-manufacturing-participant-pq">
                        <valueReference>
                                    <!--SubstanceDefinition/startingMaterialStep2-->
                           <reference value="SubstanceDefinition/c458791f-8cb8-428e-83f7-8a205f821153"/>
                        </valueReference>
                     </extension>
                     <display value="Starting material"/>
                  </typeReference>
                  <role>
                     <coding>
                        <system value="http://hl7.org/fhir/uv/pharm-quality/CodeSystem/cs-manufacturingParticipantRole-local-pq"/>
                        <code value="starting-material"/>
                        <display value="Starting Material"/>
                     </coding>
                  </role>
               </participant>
               <participant>
                  <typeReference>
                     <extension url="http://hl7.org/fhir/uv/pharm-quality/StructureDefinition/Extension-manufacturing-participant-pq">
                        <valueReference>
                                    <!--SubstanceDefinition/intermediateMaterialStep2-->
                           <reference value="SubstanceDefinition/c458791f-7cb8-428e-84f7-8a205f821155"/>
                        </valueReference>
                     </extension>
                     <display value="Intermediate material"/>
                  </typeReference>
                  <role>
                     <coding>
                        <system value="http://hl7.org/fhir/uv/pharm-quality/CodeSystem/cs-manufacturingParticipantRole-local-pq"/>
                        <code value="IntermediateMaterial"/>
                        <display value="Intermediate Material"/>
                     </coding>
                  </role>
               </participant>
               <participant>
                  <typeReference>
                     <extension url="http://hl7.org/fhir/uv/pharm-quality/StructureDefinition/Extension-manufacturing-participant-pq">
                        <valueReference>
                                    <!--SubstanceDefinition/resultingMaterialStep2-->
                           <reference value="SubstanceDefinition/c458791f-8cb8-428e-83f7-8a205f821154"/>
                        </valueReference>
                     </extension>
                     <display value="Resulting material"/>
                  </typeReference>
                  <role>
                     <coding>
                        <system value="http://hl7.org/fhir/uv/pharm-quality/CodeSystem/cs-manufacturingParticipantRole-local-pq"/>
                        <code value="ResultingMaterial"/>
                        <display value="Resulting Material"/>
                     </coding>
                  </role>
               </participant>
               <action>
                  <code>
                     <text value="Test"/>
                  </code>
                  <!--ObservationDefinition/Step2Yield-->
                  <definitionCanonical value="ObservationDefinition/fd17b5d7-9fe1-91c2-2d06-47cb5b295e72"/>
               </action>
            </action>
         </PlanDefinition>
      </resource>
   </entry>
   <!-- Diagnostic report doesn't carry much extra value but does collect all the observations -->
   <entry>
      <fullUrl value="urn:uuid:b664977d-799d-a1ce-928a-5def2a9955bd"/>
      <resource>
         <DiagnosticReport>
                <!-- ideally this wants a subject, but it can only be a Medication (batch) and we have multiple. 
                     however the observations themselves do have subjects -->
                <!--processValidationReport-->
            <id value="b664977d-799d-a1ce-928a-5def2a9955bd"/>
            <extension url="http://hl7.org/fhir/StructureDefinition/workflow-triggeredBy">
               <valueReference>
                        <!--PlanDefinition/validationProtocol-->
                  <reference value="PlanDefinition/2038e4c7-22b8-4c56-2d28-6c077648763f"/>
               </valueReference>
            </extension>
            <status value="final"/>
            <code>
               <coding>
                  <system value="http://hl7.org/fhir/uv/pharm-quality/CodeSystem/cs-reportType-local-pq"/>
                  <code value="Process Validation Report"/>
                  <display value="Process Validation Report"/>
               </coding>
            </code>
            <effectiveDateTime value="2020-12"/>
            <result><!--Observation/step1Yield1-->
               <reference value="Observation/9c56948c-2a39-6609-1c01-4d197ea57a33"/>
            </result>
            <result><!--Observation/step1Yield2-->
               <reference value="Observation/9c56948a-2b39-6609-1c01-4d197ea57a33"/>
            </result>
            <result><!--Observation/step1Yield3-->
               <reference value="Observation/9c56948a-2a39-6609-1c01-4d197ea57a33"/>
            </result>
            <result><!--Observation/residualWaterContent1-->
               <reference value="Observation/9c56958c-2a39-6609-1c01-4d197ea57a33"/>
            </result>
            <result><!--Observation/residualWaterContent2-->
               <reference value="Observation/9c56968a-2b39-6609-1c01-4d197ea57a33"/>
            </result>
            <result><!--Observation/residualWaterContent3-->
               <reference value="Observation/9c56978a-2a39-6609-1c01-4d197ea57a33"/>
            </result>
            <result><!--Observation/appearanceSubstance1-->
               <reference value="Observation/9c56948c-2a39-6609-2c01-4d197ea57a33"/>
            </result>
            <result><!--Observation/appearanceSubstance2-->
               <reference value="Observation/9c56948c-2a49-6609-2c01-4d197ea57a33"/>
            </result>
            <result><!--Observation/appearanceSubstance3-->
               <reference value="Observation/9c56948c-2a39-6609-2c01-4d197eb57a33"/>
            </result>
            <result><!--Observation/identificationSubstance1-->
               <reference value="Observation/9c56958c-2a39-6609-2c01-4d197ea57a33"/>
            </result>
            <result><!--Observation/identificationSubstance2-->
               <reference value="Observation/9c56968c-2a49-6609-2c01-4d197ea57a33"/>
            </result>
            <result><!--Observation/identificationSubstance3-->
               <reference value="Observation/9c56978c-2a39-6609-2c01-4d197eb57a33"/>
            </result>
            <result><!--Observation/step2Yield1-->
               <reference value="Observation/9c56948d-2a39-6609-1c01-4d197ea57a33"/>
            </result>
            <result><!--Observation/step2Yield2-->
               <reference value="Observation/9c56948c-2b39-6609-1c01-4d197ea57a33"/>
            </result>
            <result><!--Observation/step2Yield3-->
               <reference value="Observation/9c56948b-2a39-6609-1c01-4d197ea57a33"/>
            </result>
            <conclusion value="The samples have been assessed and the conclusion is..."/>
         </DiagnosticReport>
      </resource>
   </entry>
   <entry>
      <fullUrl value="urn:uuid:fc07b5d5-9fe1-92c2-2d06-57cb5b295e72"/>
      <resource>
         <ObservationDefinition>
                <!--AppearanceSubstance-->
            <id value="fc07b5d5-9fe1-92c2-2d06-57cb5b295e72"/>
            <url value="http://example-server.com/fhir/ObservationDefinition/fc07b5d5-9fe1-92c2-2d06-57cb5b295e72"/>
            <title value="Appearance"/>
            <status value="active"/>
            <code>
               <coding>
                  <system value="http://hl7.org/fhir/uv/pharm-quality/CodeSystem/cs-local-codes-drug-pq"/>
                  <code value="XXX"/>
                  <display value="Appearance"/>
               </coding>
               <text value="Appearance"/>
            </code>
            <method>
               <text value="Visual inspection"/>
            </method>
            <qualifiedValue>
               <extension url="http://hl7.org/fhir/uv/pharm-quality/StructureDefinition/Extension-qualified-value-text-pq">
                  <valueString value="White to off-white, to red, to orange, to brown solid"/>
               </extension>
            </qualifiedValue>
         </ObservationDefinition>
      </resource>
   </entry>
   <entry>
      <fullUrl value="urn:uuid:3b1e878e-4bc9-8864-862f-e28b21233e8d"/>
      <resource>
         <ObservationDefinition>
                <!--IdentificationSubstance-->
            <id value="3b1e878e-4bc9-8864-862f-e28b21233e8d"/>
            <url value="http://example-server.com/fhir/ObservationDefinition/3b1e878e-4bc9-8864-862f-e28b21233e8d"/>
            <title value="ID by HPLC"/>
            <status value="active"/>
            <code>
               <coding>
                  <system value="http://hl7.org/fhir/uv/pharm-quality/CodeSystem/cs-local-codes-drug-pq"/>
                  <code value="XXX"/>
                  <display value="Identification"/>
               </coding>
               <text value="ID by HPLC"/>
            </code>
            <method>
               <text value="ID by UHPLC"/>
            </method>
            <qualifiedValue>
               <extension url="http://hl7.org/fhir/uv/pharm-quality/StructureDefinition/Extension-qualified-value-text-pq">
                  <valueString value="Conforms to standard"/>
               </extension>
            </qualifiedValue>
         </ObservationDefinition>
      </resource>
   </entry>
   <entry>
      <fullUrl value="urn:uuid:12e7e672-40a6-4036-3c1f-b8ba6a7d045e"/>
      <resource>
         <ObservationDefinition>
                <!--AssaySubstance-->
            <id value="12e7e672-40a6-4036-3c1f-b8ba6a7d045e"/>
            <url value="http://example-server.com/fhir/ObservationDefinition/12e7e672-40a6-4036-3c1f-b8ba6a7d045e"/>
            <title value="Assay by HPLC (as is) (w/w%)"/>
            <status value="active"/>
            <code>
               <coding>
                  <system value="http://hl7.org/fhir/uv/pharm-quality/CodeSystem/cs-local-codes-drug-pq"/>
                  <code value="XXX"/>
                  <display value="Assay"/>
               </coding>
               <text value="Assay by HPLC (as is) (w/w%)"/>
            </code>
            <method>
               <text value="Assay by UHPLC"/>
            </method>
            <qualifiedValue>
               <range>
                  <low>
                     <value value="95"/>
                     <unit value="%"/>
                     <system value="http://unitsofmeasure.org"/>
                     <code value="%"/>
                  </low>
                  <high>
                     <value value="101"/>
                     <unit value="%"/>
                     <system value="http://unitsofmeasure.org"/>
                     <code value="%"/>
                  </high>
               </range>
            </qualifiedValue>
         </ObservationDefinition>
      </resource>
   </entry>
   <entry>
      <fullUrl value="urn:uuid:fd17b5d6-9fe1-91c2-2d06-47cb5b295e72"/>
      <resource>
         <ObservationDefinition>
                <!--Step1Yield-->
            <id value="fd17b5d6-9fe1-91c2-2d06-47cb5b295e72"/>
            <url value="http://example-server.com/fhir/ObservationDefinition/fd17b5d6-9fe1-91c2-2d06-47cb5b295e72"/>
            <title value="Yield (%)"/>
            <status value="active"/>
            <code>
               <coding>
                  <system value="http://hl7.org/fhir/uv/pharm-quality/CodeSystem/cs-local-codes-drug-pq"/>
                  <code value="XXX"/>
                  <display value="Yield (%)"/>
               </coding>
               <text value="Yield (%)"/>
            </code>
         </ObservationDefinition>
      </resource>
   </entry>
   <entry>
      <fullUrl value="urn:uuid:fd17b5d7-9fe1-91c2-2d06-47cb5b295e72"/>
      <resource>
         <ObservationDefinition>
                <!--Step2Yield-->
            <id value="fd17b5d7-9fe1-91c2-2d06-47cb5b295e72"/>
            <url value="http://example-server.com/fhir/ObservationDefinition/fd17b5d7-9fe1-91c2-2d06-47cb5b295e72"/>
            <title value="Yield (%)"/>
            <status value="active"/>
            <code>
               <coding>
                  <system value="http://hl7.org/fhir/uv/pharm-quality/CodeSystem/cs-local-codes-drug-pq"/>
                  <code value="XXX"/>
                  <display value="Yield (%)"/>
               </coding>
               <text value="Yield (%)"/>
            </code>
         </ObservationDefinition>
      </resource>
   </entry>
   <entry>
      <fullUrl value="urn:uuid:fc27b5d6-9fe1-91c2-2d16-57cb5b295e72"/>
      <resource>
         <ObservationDefinition>
                <!--ResidualWaterContent-->
            <id value="fc27b5d6-9fe1-91c2-2d16-57cb5b295e72"/>
            <url value="http://example-server.com/fhir/ObservationDefinition/fc27b5d6-9fe1-91c2-2d16-57cb5b295e72"/>
            <title value="Residual Water Content (w/w%)"/>
            <status value="active"/>
            <code>
               <coding>
                  <system value="http://hl7.org/fhir/uv/pharm-quality/CodeSystem/cs-local-codes-drug-pq"/>
                  <code value="XXX"/>
                  <display value="Residual Water Content (w/w%)"/>
               </coding>
               <text value="Residual Water Content (w/w%)"/>
            </code>
            <qualifiedValue>
               <extension url="http://hl7.org/fhir/uv/pharm-quality/StructureDefinition/Extension-qualified-value-criticality-pq">
<!--                  <extension url="http://accumulus.org/fhir/extension/qualifiedValueCriticality">-->
                  <valueCodeableConcept>
                     <coding>
                        <system value="http://hl7.org/fhir/uv/pharm-quality/CodeSystem/cs-qualifiedValueCriticality-local-pq"/>
                        <code value="Non Critical"/>
                        <display value="Non Critical"/>
                     </coding>
                     <text value="Non-critical"/>
                  </valueCodeableConcept>
               </extension>
               <range>
                  <high>
                     <value value="7.15"/>
                     <unit value="%"/>
                     <system value="http://unitsofmeasure.org"/>
                     <code value="%"/>
                  </high>
               </range>
            </qualifiedValue>
         </ObservationDefinition>
      </resource>
   </entry>
   <entry>
      <fullUrl value="urn:uuid:fc27b5d6-9ff1-91c2-2d16-57cb5b295e72"/>
      <resource>
         <ObservationDefinition>
                <!--ResidualStartingMaterial1byHPLC-->
            <id value="fc27b5d6-9ff1-91c2-2d16-57cb5b295e72"/>
            <url value="http://example-server.com/fhir/ObservationDefinition/fc27b5d6-9ff1-91c2-2d16-57cb5b295e72"/>
            <title value="Reaction conversion: residual starting material 1 by HPLC (Step Aa) (LC area %)"/>
            <status value="active"/>
            <code>
               <coding>
                  <system value="http://hl7.org/fhir/uv/pharm-quality/CodeSystem/cs-local-codes-drug-pq"/>
                  <code value="XXX"/>
                  <display value="Reaction conversion: Residual Starting Material 1 by HPLC"/>
               </coding>
               <text value="Reaction conversion: Residual Starting Material 1 by HPLC"/>
            </code>
            <qualifiedValue>
               <extension url="http://hl7.org/fhir/uv/pharm-quality/StructureDefinition/Extension-qualified-value-criticality-pq">
                  <!--                  <extension url="http://accumulus.org/fhir/extension/qualifiedValueCriticality">-->
                  <valueCodeableConcept>
                     <coding>
                        <system value="http://hl7.org/fhir/uv/pharm-quality/CodeSystem/cs-qualifiedValueCriticality-local-pq"/>
                        <code value="critical"/>
                        <display value="Critical"/>
                     </coding>
                     <text value="Critical"/>
                  </valueCodeableConcept>
               </extension>
               <range>
                  <high>
                     <value value="23"/>
                     <unit value="%"/>
                     <system value="http://unitsofmeasure.org"/>
                     <code value="%"/>
                  </high>
               </range>
            </qualifiedValue>
         </ObservationDefinition>
      </resource>
   </entry>
   <entry>
      <fullUrl value="urn:uuid:9c56948c-2a39-6609-2c01-4d197ea57a33"/>
      <resource>
         <Observation>
                <!--appearanceSubstance1-->
            <id value="9c56948c-2a39-6609-2c01-4d197ea57a33"/>
            <instantiatesReference>
                    <!--ObservationDefinition/AppearanceSubstance-->
               <reference value="ObservationDefinition/fc07b5d5-9fe1-92c2-2d06-57cb5b295e72"/>
            </instantiatesReference>
            <status value="final"/>
            <code>
               <coding>
                  <system value="http://hl7.org/fhir/uv/pharm-quality/CodeSystem/cs-local-codes-drug-pq"/>
                  <code value="XXX"/>
                  <display value="Appearance"/>
               </coding>
               <text value="Appearance"/>
            </code>
            <subject>
                    <!--Substance/actual-batch-substance-itermediate-1-->
               <reference value="Substance/fc178763-81c5-5656-9744-13c7ad1e595b"/>
            </subject>
            <effectiveDateTime value="2023-01-01T12:00:00Z"/>
            <performer>
					<!--Organization/378fbe5f-5926-3a5c-4c64-5428df877b08-->
               <reference value="Organization/378fbe5f-5926-3a5c-4c64-5428df877b08"/>
            </performer>
            <valueString value="Off-white solid"/>
         </Observation>
      </resource>
   </entry>
   <entry>
      <fullUrl value="urn:uuid:9c56948c-2a49-6609-2c01-4d197ea57a33"/>
      <resource>
         <Observation>
                <!--appearanceSubstance2-->
            <id value="9c56948c-2a49-6609-2c01-4d197ea57a33"/>
            <instantiatesReference>
                    <!--ObservationDefinition/AppearanceSubstance-->
               <reference value="ObservationDefinition/fc07b5d5-9fe1-92c2-2d06-57cb5b295e72"/>
            </instantiatesReference>
            <status value="final"/>
            <code>
               <coding>
                  <system value="http://hl7.org/fhir/uv/pharm-quality/CodeSystem/cs-local-codes-drug-pq"/>
                  <code value="XXX"/>
                  <display value="Appearance"/>
               </coding>
               <text value="Appearance"/>
            </code>
            <subject>
                    <!--Substance/actual-batch-substance-itermediate-2-->
               <reference value="Substance/fc178764-81d5-5656-9744-13c7ad1e595b"/>
            </subject>
            <effectiveDateTime value="2023-01-01T12:00:00Z"/>
            <performer>
					<!--Organization/378fbe5f-5926-3a5c-4c64-5428df877b08-->
               <reference value="Organization/378fbe5f-5926-3a5c-4c64-5428df877b08"/>
            </performer>
            <valueString value="Off-white solid"/>
         </Observation>
      </resource>
   </entry>
   <entry>
      <fullUrl value="urn:uuid:9c56948c-2a39-6609-2c01-4d197eb57a33"/>
      <resource>
         <Observation>
                <!--appearanceSubstance3-->
            <id value="9c56948c-2a39-6609-2c01-4d197eb57a33"/>
            <instantiatesReference>
                    <!--ObservationDefinition/AppearanceSubstance-->
               <reference value="ObservationDefinition/fc07b5d5-9fe1-92c2-2d06-57cb5b295e72"/>
            </instantiatesReference>
            <status value="final"/>
            <code>
               <coding>
                  <system value="http://hl7.org/fhir/uv/pharm-quality/CodeSystem/cs-local-codes-drug-pq"/>
                  <code value="XXX"/>
                  <display value="Appearance"/>
               </coding>
               <text value="Appearance"/>
            </code>
            <subject>
                    <!--Substance/actual-batch-substance-itermediate-3-->
               <reference value="Substance/fc178764-81d6-5656-9744-13c7ad1e595b"/>
            </subject>
            <effectiveDateTime value="2023-01-01T12:00:00Z"/>
            <performer>
					<!--Organization/378fbe5f-5926-3a5c-4c64-5428df877b08-->
               <reference value="Organization/378fbe5f-5926-3a5c-4c64-5428df877b08"/>
            </performer>
            <valueString value="Off-white solid"/>
         </Observation>
      </resource>
   </entry>
   <entry>
      <fullUrl value="urn:uuid:9c56958c-2a39-6609-2c01-4d197ea57a33"/>
      <resource>
         <Observation>
                <!--identificationSubstance1-->
            <id value="9c56958c-2a39-6609-2c01-4d197ea57a33"/>
            <instantiatesReference>
                    <!--ObservationDefinition/IdentificationSubstance-->
               <reference value="ObservationDefinition/3b1e878e-4bc9-8864-862f-e28b21233e8d"/>
            </instantiatesReference>
            <status value="final"/>
            <code>
               <coding>
                  <system value="http://hl7.org/fhir/uv/pharm-quality/CodeSystem/cs-local-codes-drug-pq"/>
                  <code value="XXX"/>
                  <display value="Identification"/>
               </coding>
               <text value="ID by HPLC"/>
            </code>
            <subject>
                    <!--Substance/actual-batch-substance-itermediate-1-->
               <reference value="Substance/fc178763-81c5-5656-9744-13c7ad1e595b"/>
            </subject>
            <effectiveDateTime value="2023-01-01T12:00:00Z"/>
            <performer>
               <reference value="Organization/378fbe5f-5926-3a5c-4c64-5428df877b08"/>
            </performer>
            <valueString value="Conforms"/>
         </Observation>
      </resource>
   </entry>
   <entry>
      <fullUrl value="urn:uuid:9c56968c-2a49-6609-2c01-4d197ea57a33"/>
      <resource>
         <Observation>
                <!--identificationSubstance2-->
            <id value="9c56968c-2a49-6609-2c01-4d197ea57a33"/>
            <instantiatesReference>
                    <!--ObservationDefinition/IdentificationSubstance-->
               <reference value="ObservationDefinition/3b1e878e-4bc9-8864-862f-e28b21233e8d"/>
            </instantiatesReference>
            <status value="final"/>
            <code>
               <coding>
                  <system value="http://hl7.org/fhir/uv/pharm-quality/CodeSystem/cs-local-codes-drug-pq"/>
                  <code value="XXX"/>
                  <display value="Identification"/>
               </coding>
               <text value="ID by HPLC"/>
            </code>
            <subject>
                    <!--Substance/actual-batch-substance-itermediate-2-->
               <reference value="Substance/fc178764-81d5-5656-9744-13c7ad1e595b"/>
            </subject>
            <effectiveDateTime value="2023-01-01T12:00:00Z"/>
            <performer>
               <reference value="Organization/378fbe5f-5926-3a5c-4c64-5428df877b08"/>
            </performer>
            <valueString value="Conforms"/>
         </Observation>
      </resource>
   </entry>
   <entry>
      <fullUrl value="urn:uuid:9c56978c-2a39-6609-2c01-4d197eb57a33"/>
      <resource>
         <Observation>
                <!--identificationSubstance3-->
            <id value="9c56978c-2a39-6609-2c01-4d197eb57a33"/>
            <instantiatesReference>
                    <!--ObservationDefinition/IdentificationSubstance-->
               <reference value="ObservationDefinition/3b1e878e-4bc9-8864-862f-e28b21233e8d"/>
            </instantiatesReference>
            <status value="final"/>
            <code>
               <coding>
                  <system value="http://hl7.org/fhir/uv/pharm-quality/CodeSystem/cs-local-codes-drug-pq"/>
                  <code value="XXX"/>
                  <display value="Identification"/>
               </coding>
               <text value="ID by HPLC"/>
            </code>
            <subject>
                    <!--Substance/actual-batch-substance-itermediate-3-->
               <reference value="Substance/fc178764-81d6-5656-9744-13c7ad1e595b"/>
            </subject>
            <effectiveDateTime value="2023-01-01T12:00:00Z"/>
            <performer>
               <reference value="Organization/378fbe5f-5926-3a5c-4c64-5428df877b08"/>
            </performer>
            <valueString value="Does not conform"/>
         </Observation>
      </resource>
   </entry>
   <entry>
      <fullUrl value="urn:uuid:9c56948c-2a39-6609-1c01-4d197ea57a33"/>
      <resource>
         <Observation>
                <!--step1Yield1-->
            <id value="9c56948c-2a39-6609-1c01-4d197ea57a33"/>
            <instantiatesReference>
                    <!--ObservationDefinition/Step1Yield-->
               <reference value="ObservationDefinition/fd17b5d6-9fe1-91c2-2d06-47cb5b295e72"/>
            </instantiatesReference>
            <status value="final"/>
            <code>
               <coding>
                  <system value="http://hl7.org/fhir/uv/pharm-quality/CodeSystem/cs-local-codes-drug-pq"/>
                  <code value="XXX"/>
                  <display value="Yield (%)"/>
               </coding>
               <text value="Yield (%)"/>
            </code>
            <subject>
                    <!--Substance/actual-batch-substance-itermediate-1-->
               <reference value="Substance/fc178763-81c5-5656-9744-13c7ad1e595b"/>
            </subject>
            <effectiveDateTime value="2023-01-01T12:00:00Z"/>
            <performer>
               <reference value="Organization/378fbe5f-5926-3a5c-4c64-5428df877b08"/>
            </performer>
            <valueQuantity>
               <value value="75"/>
               <unit value="%"/>
            </valueQuantity>
         </Observation>
      </resource>
   </entry>
   <entry>
      <fullUrl value="urn:uuid:9c56948a-2b39-6609-1c01-4d197ea57a33"/>
      <resource>
         <Observation>
                <!--step1Yield2-->
            <id value="9c56948a-2b39-6609-1c01-4d197ea57a33"/>
            <instantiatesReference>
                    <!--ObservationDefinition/Step1Yield-->
               <reference value="ObservationDefinition/fd17b5d6-9fe1-91c2-2d06-47cb5b295e72"/>
            </instantiatesReference>
            <status value="final"/>
            <code>
               <coding>
                  <system value="http://hl7.org/fhir/uv/pharm-quality/CodeSystem/cs-local-codes-drug-pq"/>
                  <code value="XXX"/>
                  <display value="Yield (%)"/>
               </coding>
               <text value="Yield (%)"/>
            </code>
            <subject>
                    <!--Substance/actual-batch-substance-itermediate-2-->
               <reference value="Substance/fc178764-81d5-5656-9744-13c7ad1e595b"/>
            </subject>
            <effectiveDateTime value="2023-01-01T12:00:00Z"/>
            <performer>
               <reference value="Organization/378fbe5f-5926-3a5c-4c64-5428df877b08"/>
            </performer>
            <valueQuantity>
               <value value="77"/>
               <unit value="%"/>
            </valueQuantity>
         </Observation>
      </resource>
   </entry>
   <entry>
      <fullUrl value="urn:uuid:9c56948a-2a39-6609-1c01-4d197ea57a33"/>
      <resource>
         <Observation>
                <!--step1Yield3-->
            <id value="9c56948a-2a39-6609-1c01-4d197ea57a33"/>
            <instantiatesReference>
                    <!--ObservationDefinition/Step1Yield-->
               <reference value="ObservationDefinition/fd17b5d6-9fe1-91c2-2d06-47cb5b295e72"/>
            </instantiatesReference>
            <status value="final"/>
            <code>
               <coding>
                  <system value="http://hl7.org/fhir/uv/pharm-quality/CodeSystem/cs-local-codes-drug-pq"/>
                  <code value="XXX"/>
                  <display value="Yield (%)"/>
               </coding>
               <text value="Yield (%)"/>
            </code>
            <subject>
                    <!--Substance/actual-batch-substance-itermediate-3-->
               <reference value="Substance/fc178764-81d6-5656-9744-13c7ad1e595b"/>
            </subject>
            <effectiveDateTime value="2023-01-01T12:00:00Z"/>
            <performer>
               <reference value="Organization/378fbe5f-5926-3a5c-4c64-5428df877b08"/>
            </performer>
            <valueQuantity>
               <value value="76"/>
               <unit value="%"/>
            </valueQuantity>
         </Observation>
      </resource>
   </entry>
   <entry>
      <fullUrl value="urn:uuid:9c56948d-2a39-6609-1c01-4d197ea57a33"/>
      <resource>
         <Observation>
                <!--step2Yield1-->
            <id value="9c56948d-2a39-6609-1c01-4d197ea57a33"/>
            <instantiatesReference>
                    <!--ObservationDefinition/Step2Yield-->
               <reference value="ObservationDefinition/fd17b5d7-9fe1-91c2-2d06-47cb5b295e72"/>
            </instantiatesReference>
            <status value="final"/>
            <code>
               <coding>
                  <system value="http://hl7.org/fhir/uv/pharm-quality/CodeSystem/cs-local-codes-drug-pq"/>
                  <code value="XXX"/>
                  <display value="Yield (%)"/>
               </coding>
               <text value="Yield (%)"/>
            </code>
            <subject>
                    <!--Substance/actual-batch-substance-itermediate-step2-1-->
               <reference value="Substance/fc178763-81c5-5656-9754-13c7ad1e595b"/>
            </subject>
            <effectiveDateTime value="2023-01-01T12:00:00Z"/>
            <performer>
               <reference value="Organization/378fbe5f-5926-3a5c-4c64-5428df877b08"/>
            </performer>
            <valueQuantity>
               <value value="85"/>
               <unit value="%"/>
            </valueQuantity>
         </Observation>
      </resource>
   </entry>
   <entry>
      <fullUrl value="urn:uuid:9c56948c-2b39-6609-1c01-4d197ea57a33"/>
      <resource>
         <Observation>
                <!--step2Yield2-->
            <id value="9c56948c-2b39-6609-1c01-4d197ea57a33"/>
            <instantiatesReference>
                    <!--ObservationDefinition/Step2Yield-->
               <reference value="ObservationDefinition/fd17b5d7-9fe1-91c2-2d06-47cb5b295e72"/>
            </instantiatesReference>
            <status value="final"/>
            <code>
               <coding>
                  <system value="http://hl7.org/fhir/uv/pharm-quality/CodeSystem/cs-local-codes-drug-pq"/>
                  <code value="XXX"/>
                  <display value="Yield (%)"/>
               </coding>
               <text value="Yield (%)"/>
            </code>
            <subject>
                    <!--Substance/actual-batch-substance-itermediate-step2-2-->
               <reference value="Substance/fc178764-81d5-5656-9764-13c7ad1e595b"/>
            </subject>
            <effectiveDateTime value="2023-01-01T12:00:00Z"/>
            <performer>
               <reference value="Organization/378fbe5f-5926-3a5c-4c64-5428df877b08"/>
            </performer>
            <valueQuantity>
               <value value="87"/>
               <unit value="%"/>
            </valueQuantity>
         </Observation>
      </resource>
   </entry>
   <entry>
      <fullUrl value="urn:uuid:9c56948b-2a39-6609-1c01-4d197ea57a33"/>
      <resource>
         <Observation>
                <!--step2Yield3-->
            <id value="9c56948b-2a39-6609-1c01-4d197ea57a33"/>
            <instantiatesReference>
                    <!--ObservationDefinition/Step2Yield-->
               <reference value="ObservationDefinition/fd17b5d7-9fe1-91c2-2d06-47cb5b295e72"/>
            </instantiatesReference>
            <status value="final"/>
            <code>
               <coding>
                  <system value="http://hl7.org/fhir/uv/pharm-quality/CodeSystem/cs-local-codes-drug-pq"/>
                  <code value="XXX"/>
                  <display value="Yield (%)"/>
               </coding>
               <text value="Yield (%)"/>
            </code>
            <subject>
                    <!--Substance/actual-batch-substance-itermediate-step2-3-->
               <reference value="Substance/fc178764-81d6-6656-9744-13c7ad1e595b"/>
            </subject>
            <effectiveDateTime value="2023-01-01T12:00:00Z"/>
            <performer>
               <reference value="Organization/378fbe5f-5926-3a5c-4c64-5428df877b08"/>
            </performer>
            <valueQuantity>
               <value value="86"/>
               <unit value="%"/>
            </valueQuantity>
         </Observation>
      </resource>
   </entry>
   <entry>
      <fullUrl value="urn:uuid:9c56958c-2a39-6609-1c01-4d197ea57a33"/>
      <resource>
         <Observation>
                <!--residualWaterContent1-->
            <id value="9c56958c-2a39-6609-1c01-4d197ea57a33"/>
            <instantiatesReference>
                    <!--ObservationDefinition/ResidualWaterContent-->
               <reference value="ObservationDefinition/fc27b5d6-9fe1-91c2-2d16-57cb5b295e72"/>
            </instantiatesReference>
            <status value="final"/>
            <code>
               <coding>
                  <system value="http://hl7.org/fhir/uv/pharm-quality/CodeSystem/cs-local-codes-drug-pq"/>
                  <code value="XXX"/>
                  <display value="ResidualWaterContent (w/w%)"/>
               </coding>
               <text value="ResidualWaterContent (w/w%)"/>
            </code>
            <subject>
                    <!--Substance/actual-batch-substance-itermediate-1-->
               <reference value="Substance/fc178763-81c5-5656-9744-13c7ad1e595b"/>
            </subject>
            <effectiveDateTime value="2023-01-01T12:00:00Z"/>
            <performer>
               <reference value="Organization/378fbe5f-5926-3a5c-4c64-5428df877b08"/>
            </performer>
            <valueQuantity>
               <value value="6.9"/>
               <unit value="%"/>
            </valueQuantity>
         </Observation>
      </resource>
   </entry>
   <entry>
      <fullUrl value="urn:uuid:9c56968a-2b39-6609-1c01-4d197ea57a33"/>
      <resource>
         <Observation>
                <!--residualWaterContent2-->
            <id value="9c56968a-2b39-6609-1c01-4d197ea57a33"/>
            <instantiatesReference>
                    <!--ObservationDefinition/ResidualWaterContent-->
               <reference value="ObservationDefinition/fc27b5d6-9fe1-91c2-2d16-57cb5b295e72"/>
            </instantiatesReference>
            <status value="final"/>
            <code>
               <coding>
                  <system value="http://hl7.org/fhir/uv/pharm-quality/CodeSystem/cs-local-codes-drug-pq"/>
                  <code value="XXX"/>
                  <display value="ResidualWaterContent (w/w%)"/>
               </coding>
               <text value="ResidualWaterContent (w/w%)"/>
            </code>
            <subject>
                    <!--Substance/actual-batch-substance-itermediate-2-->
               <reference value="Substance/fc178764-81d5-5656-9744-13c7ad1e595b"/>
            </subject>
            <effectiveDateTime value="2023-01-01T12:00:00Z"/>
            <performer>
               <reference value="Organization/378fbe5f-5926-3a5c-4c64-5428df877b08"/>
            </performer>
            <valueQuantity>
               <value value="7.0"/>
               <unit value="%"/>
            </valueQuantity>
         </Observation>
      </resource>
   </entry>
   <entry>
      <fullUrl value="urn:uuid:9c56978a-2a39-6609-1c01-4d197ea57a33"/>
      <resource>
         <Observation>
                <!--residualWaterContent3-->
            <id value="9c56978a-2a39-6609-1c01-4d197ea57a33"/>
            <instantiatesReference>
                    <!--ObservationDefinition/ResidualWaterContent-->
               <reference value="ObservationDefinition/fc27b5d6-9fe1-91c2-2d16-57cb5b295e72"/>
            </instantiatesReference>
            <status value="final"/>
            <code>
               <coding>
                  <system value="http://hl7.org/fhir/uv/pharm-quality/CodeSystem/cs-local-codes-drug-pq"/>
                  <code value="XXX"/>
                  <display value="ResidualWaterContent (w/w%)"/>
               </coding>
               <text value="ResidualWaterContent (w/w%)"/>
            </code>
            <subject>
                    <!--Substance/actual-batch-substance-itermediate-3-->
               <reference value="Substance/fc178764-81d6-5656-9744-13c7ad1e595b"/>
            </subject>
            <effectiveDateTime value="2023-01-01T12:00:00Z"/>
            <performer>
               <reference value="Organization/378fbe5f-5926-3a5c-4c64-5428df877b08"/>
            </performer>
            <valueQuantity>
               <value value="6.8"/>
               <unit value="%"/>
            </valueQuantity>
         </Observation>
      </resource>
   </entry>
   <entry>
      <fullUrl value="urn:uuid:23dbbd32-2962-9fc3-40b1-67e864f21cd2"/>
      <resource>
         <Organization>
				<!--substance-manufacturer-->
            <id value="23dbbd32-2962-9fc3-40b1-67e864f21cd2"/>
            <identifier>
					<!-- FDA establishment identifier -->
               <system value="urn:oid:2.16.840.1.113883.4.82"/>
               <value value="3003040516"/>
            </identifier>
            <name value="AAA Molybdenum Products, Inc."/>
            <contact>
               <address>
                  <line value="7233 W 116th Pl"/>
                  <line value="Ste C"/>
                  <city value="Broomfield"/>
                  <state value="Colorado"/>
                  <postalCode value="80020"/>
                  <country value="USA"/>
               </address>
            </contact>
         </Organization>
      </resource>
   </entry>
   <entry>
      <fullUrl value="urn:uuid:378fbe5f-5926-3a5c-4c64-5428df877b08"/>
      <resource>
         <Organization>
                <!--testing lab-->
            <id value="378fbe5f-5926-3a5c-4c64-5428df877b08"/>
            <name value="Testing Lab"/>
         </Organization>
      </resource>
   </entry>
   <entry>
      <fullUrl value="urn:uuid:57a9af63-315d-1585-a261-0e337b289390"/>
      <resource>
         <SubstanceDefinition>
                <!--substancedefinition-component-substance-dxpq-ex1-->
            <id value="57a9af63-315d-1585-a261-0e337b289390"/>
            <meta>
               <profile value="http://hl7.org/fhir/uv/pharm-quality/StructureDefinition/SubstanceDefinition-component-substance-drug-pq"/>
            </meta>
            <manufacturer>
                    <!--Organization/organization-dxpq-ex1-->
               <reference value="Organization/49d2f0c0-4b28-9271-8aaf-2996a8b9739c"/>
            </manufacturer>
            <name>
               <name value="Stelbatolol"/>
               <!-- #4 -->
            </name>
         </SubstanceDefinition>
      </resource>
   </entry>
   <entry>
      <fullUrl value="urn:uuid:c458791f-7cb8-428e-83f7-8a205f821153"/>
      <resource>
         <SubstanceDefinition>
				<!--startingMaterial-->
            <id value="c458791f-7cb8-428e-83f7-8a205f821153"/>
            <manufacturer>
					<!--Organization/substance-manufacturer-->
               <reference value="Organization/23dbbd32-2962-9fc3-40b1-67e864f21cd2"/>
            </manufacturer>
            <name>
               <name value="Stelbatosubstance"/>
            </name>
         </SubstanceDefinition>
      </resource>
   </entry>
   <entry>
      <fullUrl value="urn:uuid:fc178762-81c5-5656-9744-13c7ad1e595b"/>
      <resource>
         <Substance>
				<!--actual-batch-substance-starting-1-->
            <id value="fc178762-81c5-5656-9744-13c7ad1e595b"/>
            <meta>
               <profile value="http://hl7.org/fhir/uv/pharm-quality/StructureDefinition/Substance-drug-pq"/>
            </meta>
            <extension url="http://hl7.org/fhir/StructureDefinition/medication-manufacturingBatch">
               <extension url="manufacturingDate">
                  <valueDateTime value="2019-09-01"/>
                  <!-- #159 -->
               </extension>
               <extension url="batchQuantity"> <!-- #157 -->
                  <valueQuantity>
                     <value value="8.1"/>
                     <unit value="kg"/>
                     <!-- #158 -->
                  </valueQuantity>
               </extension>
            </extension>
            <identifier>
               <value value="Start1Amgen"/>
            </identifier>
            <instance value="true"/>
            <code>
               <reference>
						<!--SubstanceDefinition/startingMaterial-->
                  <reference value="SubstanceDefinition/c458791f-7cb8-428e-83f7-8a205f821153"/>
               </reference>
            </code>
         </Substance>
      </resource>
   </entry>
   <entry>
      <fullUrl value="urn:uuid:fc178762-81d5-5656-9744-13c7ad1e595b"/>
      <resource>
         <Substance>
				<!--actual-batch-substance-starting-2-->
            <id value="fc178762-81d5-5656-9744-13c7ad1e595b"/>
            <meta>
               <profile value="http://hl7.org/fhir/uv/pharm-quality/StructureDefinition/Substance-drug-pq"/>
            </meta>
            <extension url="http://hl7.org/fhir/StructureDefinition/medication-manufacturingBatch">
               <extension url="manufacturingDate">
                  <valueDateTime value="2019-09-01"/>
                  <!-- #159 -->
               </extension>
               <extension url="batchQuantity"> <!-- #157 -->
                  <valueQuantity>
                     <value value="8.2"/>
                     <unit value="kg"/>
                     <!-- #158 -->
                  </valueQuantity>
               </extension>
            </extension>
            <identifier>
               <value value="Start2Amgen"/>
            </identifier>
            <instance value="true"/>
            <code>
               <reference>
						<!--SubstanceDefinition/startingMaterial-->
                  <reference value="SubstanceDefinition/c458791f-7cb8-428e-83f7-8a205f821153"/>
               </reference>
            </code>
         </Substance>
      </resource>
   </entry>
   <entry>
      <fullUrl value="urn:uuid:fc178762-81d5-5656-9744-23c7ad1e595b"/>
      <resource>
         <Substance>
                <!--actual-batch-substance-starting-3-->
            <id value="fc178762-81d5-5656-9744-23c7ad1e595b"/>
            <meta>
               <profile value="http://hl7.org/fhir/uv/pharm-quality/StructureDefinition/Substance-drug-pq"/>
            </meta>
            <extension url="http://hl7.org/fhir/StructureDefinition/medication-manufacturingBatch">
               <extension url="manufacturingDate">
                  <valueDateTime value="2019-09-01"/>
                  <!-- #159 -->
               </extension>
               <extension url="batchQuantity"> <!-- #157 -->
                  <valueQuantity>
                     <value value="8.3"/>
                     <unit value="kg"/>
                     <!-- #158 -->
                  </valueQuantity>
               </extension>
            </extension>
            <identifier>
               <value value="Start3Amgen"/>
            </identifier>
            <instance value="true"/>
            <code>
               <reference>
                        <!--SubstanceDefinition/startingMaterial-->
                  <reference value="SubstanceDefinition/c458791f-7cb8-428e-83f7-8a205f821153"/>
               </reference>
            </code>
         </Substance>
      </resource>
   </entry>
   <entry>
      <fullUrl value="urn:uuid:c458791f-7cb8-428e-83f7-8a205f821154"/>
      <resource>
         <SubstanceDefinition>
				<!--resultingMaterial-->
            <id value="c458791f-7cb8-428e-83f7-8a205f821154"/>
            <name>
               <name value="Resultothane"/>
            </name>
         </SubstanceDefinition>
      </resource>
   </entry>
   <entry>
      <fullUrl value="urn:uuid:c458791f-7cb8-428e-83f7-8a205f821155"/>
      <resource>
         <SubstanceDefinition>
			    <!--intermediateMaterial-->
            <id value="c458791f-7cb8-428e-83f7-8a205f821155"/>
            <manufacturer>
					<!--Organization/substance-manufacturer-->
               <reference value="Organization/23dbbd32-2962-9fc3-40b1-67e864f21cd2"/>
            </manufacturer>
            <name>
               <name value="Processohol"/>
            </name>
         </SubstanceDefinition>
      </resource>
   </entry>
   <entry>
      <fullUrl value="urn:uuid:fc178763-81c5-5656-9744-13c7ad1e595b"/>
      <resource>
         <Substance>
				<!--actual-batch-substance-itermediate-1-->
            <id value="fc178763-81c5-5656-9744-13c7ad1e595b"/>
            <meta>
               <profile value="http://hl7.org/fhir/uv/pharm-quality/StructureDefinition/Substance-drug-pq"/>
            </meta>
            <extension url="http://hl7.org/fhir/StructureDefinition/medication-manufacturingBatch">
               <extension url="batchQuantity"> <!-- #157 -->
                  <valueQuantity>
                     <value value="9.1"/>
                     <unit value="kg"/>
                     <!-- #158 -->
                  </valueQuantity>
               </extension>
               <!--<extension url="http://accumulus.org/fhir/extension/batchDerivedFrom">--><!-- assumes 1 to 1, could also be done via a Procedure but overkill -->
               <extension url="http://hl7.org/fhir/uv/pharm-quality/StructureDefinition/Extension-batch-derived-from-pq">
                  <valueReference>
							<!--Substance/actual-batch-substance-starting-1-->
                     <reference value="Substance/fc178762-81c5-5656-9744-13c7ad1e595b"/>
                  </valueReference>
               </extension>
            </extension>
            <identifier>
               <value value="Intermed1Amgen"/>
            </identifier>
            <instance value="true"/>
            <code>
               <reference>
					    <!--SubstanceDefinition/intermediateMaterial-->
                  <reference value="SubstanceDefinition/c458791f-7cb8-428e-83f7-8a205f821155"/>
               </reference>
            </code>
         </Substance>
      </resource>
   </entry>
   <entry>
      <fullUrl value="urn:uuid:fc178764-81d5-5656-9744-13c7ad1e595b"/>
      <resource>
         <Substance>
				<!--actual-batch-substance-itermediate-2-->
            <id value="fc178764-81d5-5656-9744-13c7ad1e595b"/>
            <meta>
               <profile value="http://hl7.org/fhir/uv/pharm-quality/StructureDefinition/Substance-drug-pq"/>
            </meta>
            <extension url="http://hl7.org/fhir/StructureDefinition/medication-manufacturingBatch">
               <extension url="batchQuantity"> <!-- #157 -->
                  <valueQuantity>
                     <value value="9.2"/>
                     <unit value="kg"/>
                     <!-- #158 -->
                  </valueQuantity>
               </extension>
               <!--<extension url="http://accumulus.org/fhir/extension/batchDerivedFrom">--><!-- assumes 1 to 1, could also be done via a Procedure but overkill -->
               <extension url="http://hl7.org/fhir/uv/pharm-quality/StructureDefinition/Extension-batch-derived-from-pq">
                  <valueReference>
							<!--Substance/actual-batch-substance-starting-2-->
                     <reference value="Substance/fc178762-81d5-5656-9744-13c7ad1e595b"/>
                  </valueReference>
               </extension>
            </extension>
            <identifier>
               <value value="Intermed2Amgen"/>
            </identifier>
            <instance value="true"/>
            <code>
               <reference>
					    <!--SubstanceDefinition/intermediateMaterial-->
                  <reference value="SubstanceDefinition/c458791f-7cb8-428e-83f7-8a205f821155"/>
               </reference>
            </code>
         </Substance>
      </resource>
   </entry>
   <entry>
      <fullUrl value="urn:uuid:fc178764-81d6-5656-9744-13c7ad1e595b"/>
      <resource>
         <Substance>
                <!--actual-batch-substance-itermediate-3-->
            <id value="fc178764-81d6-5656-9744-13c7ad1e595b"/>
            <meta>
               <profile value="http://hl7.org/fhir/uv/pharm-quality/StructureDefinition/Substance-drug-pq"/>
            </meta>
            <extension url="http://hl7.org/fhir/StructureDefinition/medication-manufacturingBatch">
               <extension url="batchQuantity"> <!-- #157 -->
                  <valueQuantity>
                     <value value="9.3"/>
                     <unit value="kg"/>
                     <!-- #158 -->
                  </valueQuantity>
               </extension>
               <!--<extension url="http://accumulus.org/fhir/extension/batchDerivedFrom">--><!-- assumes 1 to 1, could also be done via a Procedure but overkill -->
               <extension url="http://hl7.org/fhir/uv/pharm-quality/StructureDefinition/Extension-batch-derived-from-pq">
                  <valueReference>
                            <!--Substance/actual-batch-substance-starting-3-->
                     <reference value="Substance/fc178762-81d5-5656-9744-23c7ad1e595b"/>
                  </valueReference>
               </extension>
            </extension>
            <identifier>
               <value value="Intermed3Amgen"/>
            </identifier>
            <instance value="true"/>
            <code>
               <reference>
                        <!--SubstanceDefinition/intermediateMaterial-->
                  <reference value="SubstanceDefinition/c458791f-7cb8-428e-83f7-8a205f821155"/>
               </reference>
            </code>
         </Substance>
      </resource>
   </entry>
   <entry>
      <fullUrl value="urn:uuid:c458791f-8cb8-428e-83f7-8a205f821153"/>
      <resource>
         <SubstanceDefinition>
                <!--startingMaterialStep2-->
            <id value="c458791f-8cb8-428e-83f7-8a205f821153"/>
            <manufacturer>
                    <!--Organization/substance-manufacturer-->
               <reference value="Organization/23dbbd32-2962-9fc3-40b1-67e864f21cd2"/>
            </manufacturer>
            <name>
               <name value="Stelbatosubstance2"/>
            </name>
         </SubstanceDefinition>
      </resource>
   </entry>
   <entry>
      <fullUrl value="urn:uuid:fc178762-81c5-5656-9744-13c7ad2e595b"/>
      <resource>
         <Substance>
                <!--actual-batch-substance-starting-step2-1-->
            <id value="fc178762-81c5-5656-9744-13c7ad2e595b"/>
            <meta>
               <profile value="http://hl7.org/fhir/uv/pharm-quality/StructureDefinition/Substance-drug-pq"/>
            </meta>
            <extension url="http://hl7.org/fhir/StructureDefinition/medication-manufacturingBatch">
               <extension url="manufacturingDate">
                  <valueDateTime value="2019-09-02"/>
                  <!-- #159 -->
               </extension>
               <extension url="batchQuantity"> <!-- #157 -->
                  <valueQuantity>
                     <value value="7.1"/>
                     <unit value="kg"/>
                     <!-- #158 -->
                  </valueQuantity>
               </extension>
            </extension>
            <identifier>
               <value value="Start1Step2Amgen"/>
            </identifier>
            <instance value="true"/>
            <code>
               <reference>
                        <!--SubstanceDefinition/startingMaterialStep2-->
                  <reference value="SubstanceDefinition/c458791f-8cb8-428e-83f7-8a205f821153"/>
               </reference>
            </code>
         </Substance>
      </resource>
   </entry>
   <entry>
      <fullUrl value="urn:uuid:fc178762-81d5-5656-9744-13c7ad1e596b"/>
      <resource>
         <Substance>
                <!--actual-batch-substance-starting-step2-2-->
            <id value="fc178762-81d5-5656-9744-13c7ad1e596b"/>
            <meta>
               <profile value="http://hl7.org/fhir/uv/pharm-quality/StructureDefinition/Substance-drug-pq"/>
            </meta>
            <extension url="http://hl7.org/fhir/StructureDefinition/medication-manufacturingBatch">
               <extension url="manufacturingDate">
                  <valueDateTime value="2019-09-02"/>
                  <!-- #159 -->
               </extension>
               <extension url="batchQuantity"> <!-- #157 -->
                  <valueQuantity>
                     <value value="7.2"/>
                     <unit value="kg"/>
                     <!-- #158 -->
                  </valueQuantity>
               </extension>
            </extension>
            <identifier>
               <value value="Start2Step2Amgen"/>
            </identifier>
            <instance value="true"/>
            <code>
               <reference>
                        <!--SubstanceDefinition/startingMaterialStep2-->
                  <reference value="SubstanceDefinition/c458791f-8cb8-428e-83f7-8a205f821153"/>
               </reference>
            </code>
         </Substance>
      </resource>
   </entry>
   <entry>
      <fullUrl value="urn:uuid:fc178762-81d5-5656-9744-23c7ad1e597b"/>
      <resource>
         <Substance>
                <!--actual-batch-substance-starting-step2-3-->
            <id value="fc178762-81d5-5656-9744-23c7ad1e597b"/>
            <meta>
               <profile value="http://hl7.org/fhir/uv/pharm-quality/StructureDefinition/Substance-drug-pq"/>
            </meta>
            <extension url="http://hl7.org/fhir/StructureDefinition/medication-manufacturingBatch">
               <extension url="manufacturingDate">
                  <valueDateTime value="2019-09-02"/>
                  <!-- #159 -->
               </extension>
               <extension url="batchQuantity"> <!-- #157 -->
                  <valueQuantity>
                     <value value="7.3"/>
                     <unit value="kg"/>
                     <!-- #158 -->
                  </valueQuantity>
               </extension>
            </extension>
            <identifier>
               <value value="Start3Step2Amgen"/>
            </identifier>
            <instance value="true"/>
            <code>
               <reference>
                        <!--SubstanceDefinition/startingMaterialStep2-->
                  <reference value="SubstanceDefinition/c458791f-8cb8-428e-83f7-8a205f821153"/>
               </reference>
            </code>
         </Substance>
      </resource>
   </entry>
   <entry>
      <fullUrl value="urn:uuid:c458791f-7cb8-428e-84f7-8a205f821155"/>
      <resource>
         <SubstanceDefinition>
                <!--intermediateMaterialStep2-->
            <id value="c458791f-7cb8-428e-84f7-8a205f821155"/>
            <manufacturer>
                    <!--Organization/substance-manufacturer-->
               <reference value="Organization/23dbbd32-2962-9fc3-40b1-67e864f21cd2"/>
            </manufacturer>
            <name>
               <name value="ProcessoholStep2"/>
            </name>
         </SubstanceDefinition>
      </resource>
   </entry>
   <entry>
      <fullUrl value="urn:uuid:fc178763-81c5-5656-9754-13c7ad1e595b"/>
      <resource>
         <Substance>
                <!--actual-batch-substance-itermediate-step2-1-->
            <id value="fc178763-81c5-5656-9754-13c7ad1e595b"/>
            <meta>
               <profile value="http://hl7.org/fhir/uv/pharm-quality/StructureDefinition/Substance-drug-pq"/>
            </meta>
            <extension url="http://hl7.org/fhir/StructureDefinition/medication-manufacturingBatch">
               <extension url="batchQuantity"> <!-- #157 -->
                  <valueQuantity>
                     <value value="10.1"/>
                     <unit value="kg"/>
                     <!-- #158 -->
                  </valueQuantity>
               </extension>
               <!--<extension url="http://accumulus.org/fhir/extension/batchDerivedFrom">--><!-- assumes 1 to 1, could also be done via a Procedure but overkill -->
               <extension url="http://hl7.org/fhir/uv/pharm-quality/StructureDefinition/Extension-batch-derived-from-pq">
                  <valueReference>
                            <!--Substance/actual-batch-substance-starting-step2-1-->
                     <reference value="Substance/fc178762-81c5-5656-9744-13c7ad2e595b"/>
                  </valueReference>
               </extension>
            </extension>
            <identifier>
               <value value="Intermed1Step2Amgen"/>
            </identifier>
            <instance value="true"/>
            <code>
               <reference>
                        <!--SubstanceDefinition/intermediateMaterialStep2-->
                  <reference value="SubstanceDefinition/c458791f-7cb8-428e-84f7-8a205f821155"/>
               </reference>
            </code>
         </Substance>
      </resource>
   </entry>
   <entry>
      <fullUrl value="urn:uuid:fc178764-81d5-5656-9764-13c7ad1e595b"/>
      <resource>
         <Substance>
                <!--actual-batch-substance-itermediate-step2-2-->
            <id value="fc178764-81d5-5656-9764-13c7ad1e595b"/>
            <meta>
               <profile value="http://hl7.org/fhir/uv/pharm-quality/StructureDefinition/Substance-drug-pq"/>
            </meta>
            <extension url="http://hl7.org/fhir/StructureDefinition/medication-manufacturingBatch">
               <extension url="batchQuantity"> <!-- #157 -->
                  <valueQuantity>
                     <value value="10.2"/>
                     <unit value="kg"/>
                     <!-- #158 -->
                  </valueQuantity>
               </extension>
               <!--<extension url="http://accumulus.org/fhir/extension/batchDerivedFrom">--><!-- assumes 1 to 1, could also be done via a Procedure but overkill -->
               <extension url="http://hl7.org/fhir/uv/pharm-quality/StructureDefinition/Extension-batch-derived-from-pq">
                  <valueReference>
                            <!--Substance/actual-batch-substance-starting-step2-2-->
                     <reference value="Substance/fc178762-81d5-5656-9744-13c7ad1e596b"/>
                  </valueReference>
               </extension>
            </extension>
            <identifier>
               <value value="Intermed2Step2Amgen"/>
            </identifier>
            <instance value="true"/>
            <code>
               <reference>
                        <!--SubstanceDefinition/intermediateMaterialStep2-->
                  <reference value="SubstanceDefinition/c458791f-7cb8-428e-84f7-8a205f821155"/>
               </reference>
            </code>
         </Substance>
      </resource>
   </entry>
   <entry>
      <fullUrl value="urn:uuid:fc178764-81d6-6656-9744-13c7ad1e595b"/>
      <resource>
         <Substance>
                <!--actual-batch-substance-itermediate-step2-3-->
            <id value="fc178764-81d6-6656-9744-13c7ad1e595b"/>
            <meta>
               <profile value="http://hl7.org/fhir/uv/pharm-quality/StructureDefinition/Substance-drug-pq"/>
            </meta>
            <extension url="http://hl7.org/fhir/StructureDefinition/medication-manufacturingBatch">
               <extension url="batchQuantity"> <!-- #157 -->
                  <valueQuantity>
                     <value value="10.3"/>
                     <unit value="kg"/>
                     <!-- #158 -->
                  </valueQuantity>
               </extension>
               <!--<extension url="http://accumulus.org/fhir/extension/batchDerivedFrom">--><!-- assumes 1 to 1, could also be done via a Procedure but overkill -->
               <extension url="http://hl7.org/fhir/uv/pharm-quality/StructureDefinition/Extension-batch-derived-from-pq">
                  <valueReference>
                            <!--Substance/actual-batch-substance-starting-step2-3-->
                     <reference value="Substance/fc178762-81d5-5656-9744-23c7ad1e597b"/>
                  </valueReference>
               </extension>
            </extension>
            <identifier>
               <value value="Intermed3Step2Amgen"/>
            </identifier>
            <instance value="true"/>
            <code>
               <reference>
                        <!--SubstanceDefinition/intermediateMaterialStep2-->
                  <reference value="SubstanceDefinition/c458791f-7cb8-428e-84f7-8a205f821155"/>
               </reference>
            </code>
         </Substance>
      </resource>
   </entry>
   <entry>
      <fullUrl value="urn:uuid:c458791f-8cb8-428e-83f7-8a205f821154"/>
      <resource>
         <SubstanceDefinition>
                <!--resultingMaterialStep2-->
            <id value="c458791f-8cb8-428e-83f7-8a205f821154"/>
            <name>
               <name value="ResultothaneStep2"/>
            </name>
         </SubstanceDefinition>
      </resource>
   </entry>
   <entry>
      <fullUrl value="urn:uuid:49d2f0c0-4b28-9271-8aaf-2996a8b9739c"/>
      <resource>
         <Organization>
                <!--id value="substance-manufacturer"/-->
                <!--organization-dxpq-ex1-->
            <id value="49d2f0c0-4b28-9271-8aaf-2996a8b9739c"/>
            <meta>
               <profile value="http://hl7.org/fhir/uv/pharm-quality/StructureDefinition/Organization-drug-pq"/>
            </meta>
            <identifier>
                    <!-- FDA establishment identifier -->
               <system value="urn:oid:2.16.840.1.113883.4.82"/>
               <value value="3003040516"/>
            </identifier>
            <name value="AAA Molybdenum Products, Inc."/>
            <contact>
               <address>
                  <line value="7233 W 116th Pl"/>
                  <line value="Ste C"/>
                  <city value="Broomfield"/>
                  <state value="Colorado"/>
                  <postalCode value="80020"/>
                  <country value="USA"/>
               </address>
            </contact>
         </Organization>
      </resource>
   </entry>
   <entry>
      <fullUrl value="urn:uuid:fc078762-81c5-5656-9744-13c7ad1e595b"/>
      <resource>
         <Substance>
                <!--<id value="actual-batch-substance"/>-->
                <!--substance-dxpq-ex1-unlinked-->
            <id value="fc078762-81c5-5656-9744-13c7ad1e595b"/>
            <meta>
               <profile value="http://hl7.org/fhir/uv/pharm-quality/StructureDefinition/Substance-drug-pq"/>
            </meta>
            <extension url="http://hl7.org/fhir/StructureDefinition/medication-manufacturingBatch">
               <extension url="http://hl7.org/fhir/uv/pharm-quality/StructureDefinition/Extension-batch-release-date-pq">
                  <valueDateTime value="2019-09-08"/>
                  <!-- #173 -->
               </extension>
               <extension url="http://hl7.org/fhir/uv/pharm-quality/StructureDefinition/Extension-batch-retest-date-pq">
                  <valueDateTime value="2022-09-08"/>
                  <!-- #221 -->
               </extension>
               <extension url="manufacturingDate">
                  <valueDateTime value="2019-09-07"/>
                  <!-- #159 -->
               </extension>
               <extension url="batchQuantity"> <!-- #157 -->
                  <valueQuantity>
                     <value value="5.1"/>
                     <unit value="kg"/>
                     <!-- #158 -->
                  </valueQuantity>
               </extension>
               <extension url="http://hl7.org/fhir/uv/pharm-quality/StructureDefinition/Extension-actual-yield-pq">
                  <valueQuantity>
                     <value value="4.8"/>
                     <unit value="kg"/>
                  </valueQuantity>
               </extension>
               <extension url="batchUtilization"><!-- #161 -->
                  <valueCodeableConcept>
                     <coding>
                        <system value="http://temp.hl7.org/fhir/us/pq-cmc/CodeSystem/pqcmc-batch-utilization-terminology"/>
                        <code value="C133991"/>
                        <display value="Development"/>
                     </coding>
                  </valueCodeableConcept>
               </extension>
               <extension url="assignedManufacturer"> <!-- #160 -->
                  <valueReference>
                            <!--Organization/organization-dxpq-ex1-->
                     <reference value="Organization/49d2f0c0-4b28-9271-8aaf-2996a8b9739c"/>
                  </valueReference>
               </extension>
            </extension>
            <identifier>
               <value value="SUB1Amgen"/>
            </identifier>
            <identifier>
               <value value="SUB1SiteA"/>
               <assigner>
            		    <!--Organization/organization-dxpq-ex1-->
                  <reference value="Organization/49d2f0c0-4b28-9271-8aaf-2996a8b9739c"/>
               </assigner>
            </identifier>
            <instance value="true"/>
            <code>
               <reference>
                        <!--SubstanceDefinition/substancedefinition-component-substance-dxpq-ex1-->
                  <reference value="SubstanceDefinition/57a9af63-315d-1585-a261-0e337b289390"/>
               </reference>
            </code>
         </Substance>
      </resource>
   </entry>
   <entry>
      <fullUrl value="urn:uuid:cb31d747-2338-88d5-342c-8e9c097e4dad"/>
      <resource>
         <Substance>
                <!--actual-batch-substance-2-unlinked-->
            <id value="cb31d747-2338-88d5-342c-8e9c097e4dad"/>
            <extension url="http://hl7.org/fhir/StructureDefinition/medication-manufacturingBatch">
               <extension url="http://hl7.org/fhir/uv/pharm-quality/StructureDefinition/Extension-batch-release-date-pq">
                  <valueDateTime value="2019-09-08"/>
                  <!-- #173 -->
               </extension>
               <extension url="http://hl7.org/fhir/uv/pharm-quality/StructureDefinition/Extension-batch-retest-date-pq">
                  <valueDateTime value="2022-09-08"/>
                  <!-- #221 -->
               </extension>
               <extension url="manufacturingDate">
                  <valueDateTime value="2019-09-07"/>
                  <!-- #159 -->
               </extension>
               <extension url="batchQuantity"> <!-- #157 -->
                  <valueQuantity>
                     <value value="5.2"/>
                     <unit value="kg"/>
                     <!-- #158 -->
                  </valueQuantity>
               </extension>
               <extension url="http://hl7.org/fhir/uv/pharm-quality/StructureDefinition/Extension-actual-yield-pq">
                  <valueQuantity>
                     <value value="4.8"/>
                     <unit value="kg"/>
                  </valueQuantity>
               </extension>
               <extension url="batchUtilization"><!-- #161 -->
                  <valueCodeableConcept>
                     <coding>
                        <system value="http://temp.hl7.org/fhir/us/pq-cmc/CodeSystem/pqcmc-batch-utilization-terminology"/>
                        <code value="C133991"/>
                        <display value="Development"/>
                     </coding>
                  </valueCodeableConcept>
               </extension>
               <extension url="assignedManufacturer"> <!-- #160 -->
                  <valueReference>
                            <!--Organization/organization-dxpq-ex1-->
                     <reference value="Organization/49d2f0c0-4b28-9271-8aaf-2996a8b9739c"/>
                  </valueReference>
               </extension>
            </extension>
            <identifier>
               <value value="SUB2Amgen"/>
            </identifier>
            <identifier>
               <value value="SUB2SiteA"/>
               <assigner>
            		    <!--Organization/organization-dxpq-ex1-->
                  <reference value="Organization/49d2f0c0-4b28-9271-8aaf-2996a8b9739c"/>
               </assigner>
            </identifier>
            <instance value="true"/>
            <code>
               <reference>
                        <!--SubstanceDefinition/substancedefinition-component-substance-dxpq-ex1-->
                  <reference value="SubstanceDefinition/57a9af63-315d-1585-a261-0e337b289390"/>
               </reference>
            </code>
         </Substance>
      </resource>
   </entry>
   <entry>
      <fullUrl value="urn:uuid:1551f97b-6f6d-825e-1fb3-44b0b090808c"/>
      <resource>
         <Substance>
                <!--actual-batch-substance-3-unlinked-->
            <id value="1551f97b-6f6d-825e-1fb3-44b0b090808c"/>
            <extension url="http://hl7.org/fhir/StructureDefinition/medication-manufacturingBatch">
               <extension url="http://hl7.org/fhir/uv/pharm-quality/StructureDefinition/Extension-batch-release-date-pq">
                  <valueDateTime value="2019-09-08"/>
                  <!-- #173 -->
               </extension>
               <extension url="http://hl7.org/fhir/uv/pharm-quality/StructureDefinition/Extension-batch-retest-date-pq">
                  <valueDateTime value="2022-09-08"/>
                  <!-- #221 -->
               </extension>
               <extension url="manufacturingDate">
                  <valueDateTime value="2019-09-07"/>
                  <!-- #159 -->
               </extension>
               <extension url="batchQuantity"> <!-- #157 -->
                  <valueQuantity>
                     <value value="5.3"/>
                     <unit value="kg"/>
                     <!-- #158 -->
                  </valueQuantity>
               </extension>
               <extension url="http://hl7.org/fhir/uv/pharm-quality/StructureDefinition/Extension-actual-yield-pq">
                  <valueQuantity>
                     <value value="4.8"/>
                     <unit value="kg"/>
                  </valueQuantity>
               </extension>
               <extension url="batchUtilization"><!-- #161 -->
                  <valueCodeableConcept>
                     <coding>
                        <system value="http://temp.hl7.org/fhir/us/pq-cmc/CodeSystem/pqcmc-batch-utilization-terminology"/>
                        <code value="C133991"/>
                        <display value="Development"/>
                     </coding>
                  </valueCodeableConcept>
               </extension>
               <extension url="assignedManufacturer"> <!-- #160 -->
                  <valueReference>
                            <!--Organization/organization-dxpq-ex1-->
                     <reference value="Organization/49d2f0c0-4b28-9271-8aaf-2996a8b9739c"/>
                  </valueReference>
               </extension>
            </extension>
            <identifier>
               <value value="SUB3Amgen"/>
               <!-- #155 -->
            </identifier>
            <identifier>
               <value value="SUB3SiteA"/>
               <assigner>
            		    <!--Organization/organization-dxpq-ex1-->
                  <reference value="Organization/49d2f0c0-4b28-9271-8aaf-2996a8b9739c"/>
               </assigner>
            </identifier>
            <instance value="true"/>
            <code>
               <reference>
                        <!--SubstanceDefinition/substancedefinition-component-substance-dxpq-ex1-->
                  <reference value="SubstanceDefinition/57a9af63-315d-1585-a261-0e337b289390"/>
               </reference>
            </code>
         </Substance>
      </resource>
   </entry>
</Bundle>
