<?xml version="1.0" encoding="UTF-8"?>
<!-- Product Process Validation -->
<Bundle xmlns="http://hl7.org/fhir">
   <id value="bundle-product-process-validation-pq-ex1"/>
   <meta>
      <profile value="http://hl7.org/fhir/uv/pharm-quality/StructureDefinition/Bundle-product-process-validation-pq"/>
   </meta>
   <type value="collection"/>
   <entry>
      <fullUrl value="urn:uuid:2038e4c7-22b8-4c56-2d28-6c077648763f"/>
      <resource>
         <PlanDefinition>
                <!--validationProtocol-->
            <id value="2038e4c7-22b8-4c56-2d28-6c077648763f"/>
            <url value="http://example-server.com/fhir/PlanDefinition/2038e4c7-22b8-4c56-2d28-6c077648763f"/>
            <title value="DP PROCESS VALIDATION"/>
            <type>
               <coding>
                  <system value="http://terminology.hl7.org/CodeSystem/plan-definition-type"/>
                  <code value="workflow-definition"/>
                  <display value="Workflow Definition"/>
               </coding>
               <coding>
                  <system value="http://accumulus.org/fhir/code/planType"/>
                  <code value="process-validation"/>
                  <display value="Process Validation"/>
               </coding>
            </type>
            <status value="active"/>
            <subjectReference>
                    <!--MedicinalProductDefinition/medicinalproductdefinition-drug-product-pq-ex1-->
               <reference value="MedicinalProductDefinition/a0694a7a-aafa-4cbe-8135-c788a9a4d3d5"/>
            </subjectReference>
            <description value="Pre-defined validation acceptance criteria were established based on manufacturing development data derived from process characterization studies..."/>
            <action>
               <title value="Compounding Step"/>
               <code>
                  <coding>
                     <system value="http://temp.hl7.org/fhir/us/pq-cmc/CodeSystem/manufacturing-step"/>
                     <code value="compounding"/>
                     <display value="Compounding Step"/>
                  </coding>
                  <!--text value="Overall set of actions"/-->
               </code>
               <action> <!-- this level is not really needed here, could remove. But in the case where there are different timings, it is needed, so it is here for consistency -->
                  <title value="Compounding Steps"/>
                  <code>
                     <text value="Compounding"/>
                  </code>
                  <action>
                     <code>
                        <text value="Test"/>
                     </code>
                     <!--ObservationDefinition/compoundingpHPre-->
                     <definitionCanonical value="ObservationDefinition/fc17b5d5-9fe1-91c2-2d06-47cb5b295e72"/>
                  </action>
                  <action>
                     <code>
                        <text value="Test"/>
                     </code>
                     <!--ObservationDefinition/compoundingpHPost-->
                     <definitionCanonical value="ObservationDefinition/fc17b5d5-9fe1-91c2-2d06-47cb5b295e73"/>
                  </action>
                  <action>
                     <code>
                        <text value="Test"/>
                     </code>
                     <!--ObservationDefinition/compoundingAssayPre-->
                     <definitionCanonical value="ObservationDefinition/fd17b5d5-9fe1-91c2-2d06-47cb5b295e72"/>
                  </action>
                  <action>
                     <code>
                        <text value="Test"/>
                     </code>
                     <!--ObservationDefinition/compoundingAssayPost-->
                     <definitionCanonical value="ObservationDefinition/fd17b5d5-9fe1-91c2-2d06-47cb5b295e73"/>
                  </action>
               </action>
            </action>
            <action>
               <title value="Filling Steps"/>
               <code>
                  <coding>
                     <system value="http://temp.hl7.org/fhir/us/pq-cmc/CodeSystem/manufacturing-step"/>
                     <code value="filling"/>
                     <display value="Filling Step"/>
                  </coding>
               </code>
               <action>
                  <title value="???"/>
                  <code>
                     <text value="???"/>
                  </code>
                  <action>
                     <code>
                        <text value="Conclusion"/>
                     </code>
                     <!--ObservationDefinition/conclusion-->
                     <definitionCanonical value="ObservationDefinition/22515a3c-5034-448a-9c19-938ce1958424"/>
                  </action>
                  <action>
                     <code>
                        <text value="Test"/>
                     </code>
                     <!--ObservationDefinition/TAMC-->
                     <definitionCanonical value="ObservationDefinition/64505a3c-5034-448a-9c19-938ce1958424"/>
                  </action>
                  <action>
                     <code>
                        <text value="Test"/>
                     </code>
                     <!--ObservationDefinition/TYMC-->
                     <definitionCanonical value="ObservationDefinition/64515a3c-5034-448a-9c19-938ce1958424"/>
                  </action>
                  <action>
                     <code>
                        <text value="Test"/>
                     </code>
                     <!--ObservationDefinition/FillWeightAverage-->
                     <definitionCanonical value="ObservationDefinition/64515a3c-5134-448a-9c19-938ce1958424"/>
                  </action>
                  <action>
                     <code>
                        <text value="Test"/>
                     </code>
                     <!--ObservationDefinition/FillWeightTarget-->
                     <definitionCanonical value="ObservationDefinition/64525a3c-5134-448a-9c19-938ce1958424"/>
                  </action>
                  <action>
                     <code>
                        <text value="Test"/>
                     </code>
                     <!--ObservationDefinition/FillWeightAverageFromTarget-->
                     <definitionCanonical value="ObservationDefinition/64515a3c-5134-448a-9c29-938ce1958424"/>
                  </action>
                  <action>
                     <code>
                        <text value="Test"/>
                     </code>
                     <!--ObservationDefinition/HoldTimeFiltrationToFilling-->
                     <definitionCanonical value="ObservationDefinition/64515a3c-5234-448a-9c29-938ce1958424"/>
                  </action>
                  <action>
                     <code>
                        <text value="Test"/>
                     </code>
                     <!--ObservationDefinition/HoldTimeFilling-->
                     <definitionCanonical value="ObservationDefinition/64515a3c-5334-448a-9c29-938ce1958424"/>
                  </action>
                  <action>
                     <code>
                        <text value="Test"/>
                     </code>
                     <!--ObservationDefinition/FilterIntegrity-->
                     <definitionCanonical value="ObservationDefinition/64535a3c-5334-448a-9c29-938ce1958424"/>
                  </action>
               </action>
            </action>
            <action>
               <title value="Lyophilization Step"/>
               <code>
                  <coding>
                     <system value="http://temp.hl7.org/fhir/us/pq-cmc/CodeSystem/manufacturing-step"/>
                     <code value="lyophilization"/>
                     <display value="Lyophilization Step"/>
                  </coding>
               </code>
               <action>
                  <code>
                     <text value="Conclusion"/>
                  </code>
                  <!--ObservationDefinition/LyophilizationConclusion-->
                  <definitionCanonical value="ObservationDefinition/22525a3c-5034-448a-9c19-938ce1958424"/>
               </action>
               <action>
                  <code>
                     <text value="Test"/>
                  </code>
                  <!--ObservationDefinition/LyophilizerNumber-->
                  <definitionCanonical value="ObservationDefinition/64535a3c-5334-448a-9c29-938ce2958424"/>
               </action>
               <action>
                  <code>
                     <text value="Test"/>
                  </code>
                  <!--ObservationDefinition/LyophilizationAssay-->
                  <definitionCanonical value="ObservationDefinition/22e7e672-40a6-4036-3c1f-b8ba6a7d045e"/>
               </action>
               <action>
                  <code>
                     <text value="Test"/>
                  </code>
                  <!--ObservationDefinition/LyophilizationWater-->
                  <definitionCanonical value="ObservationDefinition/32e29d22-5fcb-546e-24fd-52a4a4004467"/>
               </action>
               <action>
                  <code>
                     <text value="Homogeneity"/>
                  </code>
                  <!--ObservationDefinition/LyophilizationWaterHomogeneity-->
                  <definitionCanonical value="ObservationDefinition/32e29d22-6fcb-546e-24fd-52a4a4004467"/>
               </action>
               <action>
                  <code>
                     <text value="Homogeneity"/>
                  </code>
                  <!--ObservationDefinition/LyophilizationAssayHomogeneity-->
                  <definitionCanonical value="ObservationDefinition/32e29d32-6fcb-546e-24fd-52a4a4004467"/>
               </action>
            </action>
            <action>
               <title value="Release Step"/>
               <code>
                  <coding>
                     <system value="http://temp.hl7.org/fhir/us/pq-cmc/CodeSystem/manufacturing-step"/>
                     <code value="release"/>
                     <display value="Release Step"/>
                  </coding>
                  <!--text value="Overall set of actions"/-->
               </code>
               <action>
                  <title value="???"/>
                  <code>
                     <text value="???"/>
                  </code>
                  <action>
                     <code>
                        <text value="Test"/>
                     </code>
                     <!--ObservationDefinition/AppearanceProduct-->
                     <definitionCanonical value="ObservationDefinition/fc07b5d5-9fe1-92c2-2d06-47cb5b295e72"/>
                  </action>
                  <action>
                     <code>
                        <text value="Test"/>
                     </code>
                     <!--ObservationDefinition/AppearanceLyophilized-->
                     <definitionCanonical value="ObservationDefinition/fc07b5d5-9fe1-92c3-2d16-47cb5b295e72"/>
                  </action>
                  <action>
                     <code>
                        <text value="Test"/>
                     </code>
                     <!--ObservationDefinition/AppearanceReconstituted-->
                     <definitionCanonical value="ObservationDefinition/fc07b5d5-9fe1-92c3-2d06-47cb5b295e72"/>
                  </action>
                  <action>
                     <code>
                        <text value="Test"/>
                     </code>
                     <!--ObservationDefinition/Identification-->
                     <definitionCanonical value="ObservationDefinition/3b0e878e-4bc9-8864-862f-e28b21233e8d"/>
                  </action>
                  <action>
                     <code>
                        <text value="Test"/>
                     </code>
                     <!--ObservationDefinition/Assay-->
                     <definitionCanonical value="ObservationDefinition/12e7e672-40a6-4036-3c1f-b8ba6a7d045e"/>
                  </action>
                  <action>
                     <code>
                        <text value="Test"/>
                     </code>
                     <!--ObservationDefinition/Degradation-->
                     <definitionCanonical value="ObservationDefinition/8bdea820-4197-7c7d-0990-7be06bf78aaf"/>
                  </action>
                  <action>
                     <code>
                        <text value="Test"/>
                     </code>
                     <!--ObservationDefinition/Water-->
                     <definitionCanonical value="ObservationDefinition/31e29d22-5fcb-546e-24fd-52a4a4004467"/>
                  </action>
                  <action>
                     <code>
                        <text value="Test"/>
                     </code>
                     <!--ObservationDefinition/UniformityUSP-->
                     <definitionCanonical value="ObservationDefinition/ef17cff1-6586-a5a4-9168-2602140548d7"/>
                  </action>
                  <action>
                     <code>
                        <text value="Test"/>
                     </code>
                     <!--ObservationDefinition/UniformityAcceptance-->
                     <definitionCanonical value="ObservationDefinition/ef17cff1-6586-a5a4-9168-2602140548d8"/>
                  </action>
                  <action>
                     <code>
                        <text value="Test"/>
                     </code>
                     <!--ObservationDefinition/releasepH-->
                     <definitionCanonical value="ObservationDefinition/fc17b5d6-9fe1-91c2-2d06-47cb5b295e72"/>
                  </action>
               </action>
            </action>
         </PlanDefinition>
      </resource>
   </entry>
   <!-- compounding step -->
   <entry>
      <fullUrl value="urn:uuid:fc17b5d5-9fe1-91c2-2d06-47cb5b295e72"/>
      <resource>
         <ObservationDefinition>
                <!--compoundingpHPre-->
            <id value="fc17b5d5-9fe1-91c2-2d06-47cb5b295e72"/>
            <!--http://example-server.com/fhir/ObservationDefinition/fc17b5d5-9fe1-91c2-2d06-47cb5b295e72-->
            <url value="http://example-server.com/fhir/ObservationDefinition/fc17b5d5-9fe1-91c2-2d06-47cb5b295e72"/>
            <title value="pH (adjustment of pre-clarification bulk solution)"/>
            <status value="active"/>
            <code>
               <coding>
                  <system value="http://dummy.loinc.org"/>
                  <code value="XXX"/>
                  <display value="pH (adjustment of pre-clarification bulk solution)"/>
               </coding>
               <text value="pH (adjustment of pre-clarification bulk solution)"/>
            </code>
            <qualifiedValue>
               <range>
                  <low>
                     <value value="6.9"/>
                     <unit value="pH"/>
                     <system value="http://unitsofmeasure.org"/>
                     <code value="pH"/>
                  </low>
                  <high>
                     <value value="7.1"/>
                     <unit value="pH"/>
                     <system value="http://unitsofmeasure.org"/>
                     <code value="pH"/>
                  </high>
               </range>
            </qualifiedValue>
         </ObservationDefinition>
      </resource>
   </entry>
   <entry>
      <fullUrl value="urn:uuid:fc17b5d5-9fe1-91c2-2d06-47cb5b295e73"/>
      <resource>
         <ObservationDefinition>
                <!--compoundingpHPost-->
            <id value="fc17b5d5-9fe1-91c2-2d06-47cb5b295e73"/>
            <!--http://example-server.com/fhir/ObservationDefinition/fc17b5d5-9fe1-91c2-2d06-47cb5b295e73-->
            <url value="http://example-server.com/fhir/ObservationDefinition/fc17b5d5-9fe1-91c2-2d06-47cb5b295e73"/>
            <title value="pH (post-dilution bulk solution)"/>
            <status value="active"/>
            <code>
               <coding>
                  <system value="http://dummy.loinc.org"/>
                  <code value="XXX"/>
                  <display value="pH (post-dilution bulk solution)"/>
               </coding>
               <text value="pH (post-dilution bulk solution)"/>
            </code>
            <qualifiedValue>
               <range>
                  <low>
                     <value value="7.0"/>
                     <unit value="pH"/>
                     <system value="http://unitsofmeasure.org"/>
                     <code value="pH"/>
                  </low>
                  <high>
                     <value value="7.1"/>
                     <unit value="pH"/>
                     <system value="http://unitsofmeasure.org"/>
                     <code value="pH"/>
                  </high>
               </range>
            </qualifiedValue>
         </ObservationDefinition>
      </resource>
   </entry>
   <entry>
      <fullUrl value="urn:uuid:fd17b5d5-9fe1-91c2-2d06-47cb5b295e72"/>
      <resource>
         <ObservationDefinition>
                <!--compoundingAssayPre-->
            <id value="fd17b5d5-9fe1-91c2-2d06-47cb5b295e72"/>
            <!--http://example-server.com/fhir/ObservationDefinition/fd17b5d5-9fe1-91c2-2d06-47cb5b295e72-->
            <url value="http://example-server.com/fhir/ObservationDefinition/fd17b5d5-9fe1-91c2-2d06-47cb5b295e72"/>
            <title value="Assay (pre-clarification filtration) (mg/mL)"/>
            <status value="active"/>
            <code>
               <coding>
                  <system value="http://dummy.loinc.org"/>
                  <code value="XXX"/>
                  <display value="Assay (pre-clarification filtration) (mg/mL)"/>
               </coding>
               <text value="Assay (pre-clarification filtration) (mg/mL)"/>
            </code>
            <qualifiedValue>
               <range>
                  <low>
                     <value value="22"/>
                     <unit value="mg/mL"/>
                     <system value="http://unitsofmeasure.org"/>
                     <code value="mg/mL"/>
                     <!-- todo correct this and the others -->
                  </low>
               </range>
            </qualifiedValue>
         </ObservationDefinition>
      </resource>
   </entry>
   <entry>
      <fullUrl value="urn:uuid:fd17b5d5-9fe1-91c2-2d06-47cb5b295e73"/>
      <resource>
         <ObservationDefinition>
                <!--compoundingAssayPost-->
            <id value="fd17b5d5-9fe1-91c2-2d06-47cb5b295e73"/>
            <!--http://example-server.com/fhir/ObservationDefinition/fd17b5d5-9fe1-91c2-2d06-47cb5b295e73-->
            <url value="http://example-server.com/fhir/ObservationDefinition/fd17b5d5-9fe1-91c2-2d06-47cb5b295e73"/>
            <title value="Assay (Post dilution bulk solution) (mg/mL)"/>
            <status value="active"/>
            <code>
               <coding>
                  <system value="http://dummy.loinc.org"/>
                  <code value="XXX"/>
                  <display value="Assay (Post dilution bulk solution) (mg/mL)"/>
               </coding>
               <text value="Assay (Post dilution bulk solution) (mg/mL)"/>
            </code>
            <qualifiedValue>
               <range>
                  <low>
                     <value value="20"/>
                     <unit value="mg/mL"/>
                     <system value="http://unitsofmeasure.org"/>
                     <code value="mg/mL"/>
                     <!-- todo correct this -->
                  </low>
                  <high>
                     <value value="21"/>
                     <unit value="mg/mL"/>
                     <system value="http://unitsofmeasure.org"/>
                     <code value="mg/mL"/>
                     <!-- todo correct this -->
                  </high>
               </range>
            </qualifiedValue>
         </ObservationDefinition>
      </resource>
   </entry>
   <entry>
      <fullUrl value="urn:uuid:fc07b5d5-9fe1-92c2-2d06-47cb5b295e72"/>
      <resource>
         <ObservationDefinition>
                <!--AppearanceProduct-->
            <id value="fc07b5d5-9fe1-92c2-2d06-47cb5b295e72"/>
            <!--http://example-server.com/fhir/ObservationDefinition/fc07b5d5-9fe1-92c2-2d06-47cb5b295e72-->
            <url value="http://example-server.com/fhir/ObservationDefinition/fc07b5d5-9fe1-92c2-2d06-47cb5b295e72"/>
            <title value="Appearance (Product Container, visual)"/>
            <status value="active"/>
            <code>
               <coding>
                  <system value="http://dummy.loinc.org"/>
                  <code value="XXX"/>
                  <display value="Appearance (Product Container, visual)"/>
               </coding>
               <text value="Appearance (Product Container, visual)"/>
            </code>
            <method>
               <text value="Visual inspection"/>
            </method>
            <qualifiedValue>
               <extension url="http://hl7.org/fhir/uv/pharm-quality/StructureDefinition/Extension-qualified-value-text-pq">
                  <valueString value="1)  Clear glass vial sealed with a gray rubber stopper and a flip off overseal 2)  No visible damage or breach of vial container or closure"/>
               </extension>
            </qualifiedValue>
         </ObservationDefinition>
      </resource>
   </entry>
   <entry>
      <fullUrl value="urn:uuid:fc07b5d5-9fe1-92c3-2d16-47cb5b295e72"/>
      <resource>
         <ObservationDefinition>
                <!--AppearanceLyophilized-->
            <id value="fc07b5d5-9fe1-92c3-2d16-47cb5b295e72"/>
            <!--http://example-server.com/fhir/ObservationDefinition/fc07b5d5-9fe1-92c3-2d16-47cb5b295e72-->
            <url value="http://example-server.com/fhir/ObservationDefinition/fc07b5d5-9fe1-92c3-2d16-47cb5b295e72"/>
            <title value="Appearance (Lyophilized, Visual)"/>
            <status value="active"/>
            <code>
               <coding>
                  <system value="http://dummy.loinc.org"/>
                  <code value="XXX"/>
                  <display value="Appearance (Lyophilized, Visual)"/>
               </coding>
               <text value="Appearance (Lyophilized, Visual)"/>
            </code>
            <method>
               <text value="Visual inspection"/>
            </method>
            <qualifiedValue>
               <extension url="http://hl7.org/fhir/uv/pharm-quality/StructureDefinition/Extension-qualified-value-text-pq">
                  <valueString value="White to off white cake or powder, essentially free from evidence of contamination with no visible foreign particulates"/>
               </extension>
            </qualifiedValue>
         </ObservationDefinition>
      </resource>
   </entry>
   <entry>
      <fullUrl value="urn:uuid:fc07b5d5-9fe1-92c3-2d06-47cb5b295e72"/>
      <resource>
         <ObservationDefinition>
                <!--AppearanceReconstituted-->
            <id value="fc07b5d5-9fe1-92c3-2d06-47cb5b295e72"/>
            <!--http://example-server.com/fhir/ObservationDefinition/fc07b5d5-9fe1-92c3-2d06-47cb5b295e72-->
            <url value="http://example-server.com/fhir/ObservationDefinition/fc07b5d5-9fe1-92c3-2d06-47cb5b295e72"/>
            <title value="Appearance (Reconstituted, Visual)"/>
            <status value="active"/>
            <code>
               <coding>
                  <system value="http://dummy.loinc.org"/>
                  <code value="XXX"/>
                  <display value="Appearance (Reconstituted, Visual)"/>
               </coding>
               <text value="Appearance (Reconstituted, Visual)"/>
            </code>
            <method>
               <text value="Visual inspection"/>
            </method>
            <qualifiedValue>
               <extension url="http://hl7.org/fhir/uv/pharm-quality/StructureDefinition/Extension-qualified-value-text-pq">
                  <valueString value="Clear, colorless to slightly yellow solution, essentially free of visible particulates"/>
               </extension>
            </qualifiedValue>
         </ObservationDefinition>
      </resource>
   </entry>
   <entry>
      <fullUrl value="urn:uuid:3b0e878e-4bc9-8864-862f-e28b21233e8d"/>
      <resource>
         <ObservationDefinition>
                <!--Identification-->
            <id value="3b0e878e-4bc9-8864-862f-e28b21233e8d"/>
            <!--http://example-server.com/fhir/ObservationDefinition/3b0e878e-4bc9-8864-862f-e28b21233e8d-->
            <url value="http://example-server.com/fhir/ObservationDefinition/3b0e878e-4bc9-8864-862f-e28b21233e8d"/>
            <title value="Identification"/>
            <status value="active"/>
            <code>
               <coding>
                  <system value="http://dummy.loinc.org"/>
                  <code value="XXX"/>
                  <display value="Identification"/>
               </coding>
               <text value="Identification"/>
            </code>
            <method>
               <text value="ID by UHPLC"/>
            </method>
            <qualifiedValue>
               <extension url="http://hl7.org/fhir/uv/pharm-quality/StructureDefinition/Extension-qualified-value-text-pq">
                  <valueString value="Consistent with the retention time and UV spectrum of the reference standard"/>
               </extension>
            </qualifiedValue>
         </ObservationDefinition>
      </resource>
   </entry>
   <entry>
      <fullUrl value="urn:uuid:12e7e672-40a6-4036-3c1f-b8ba6a7d045e"/>
      <resource>
         <ObservationDefinition>
                <!--Assay-->
            <id value="12e7e672-40a6-4036-3c1f-b8ba6a7d045e"/>
            <!--http://example-server.com/fhir/ObservationDefinition/12e7e672-40a6-4036-3c1f-b8ba6a7d045e-->
            <url value="http://example-server.com/fhir/ObservationDefinition/12e7e672-40a6-4036-3c1f-b8ba6a7d045e"/>
            <title value="Assay"/>
            <status value="active"/>
            <code>
               <coding>
                  <system value="http://dummy.loinc.org"/>
                  <code value="XXX"/>
                  <display value="Assay"/>
               </coding>
               <text value="Assay"/>
            </code>
            <method>
               <text value="Assay by UHPLC"/>
            </method>
            <qualifiedValue>
               <extension url="http://hl7.org/fhir/uv/pharm-quality/StructureDefinition/Extension-qualified-value-text-pq">
                  <valueString value="95% to 105% of label claim"/>
               </extension>
            </qualifiedValue>
         </ObservationDefinition>
      </resource>
   </entry>
   <entry>
      <fullUrl value="urn:uuid:8bdea820-4197-7c7d-0990-7be06bf78aaf"/>
      <resource>
         <ObservationDefinition>
                <!--Degradation-->
            <id value="8bdea820-4197-7c7d-0990-7be06bf78aaf"/>
            <!--http://example-server.com/fhir/ObservationDefinition/8bdea820-4197-7c7d-0990-7be06bf78aaf-->
            <url value="http://example-server.com/fhir/ObservationDefinition/8bdea820-4197-7c7d-0990-7be06bf78aaf"/>
            <title value="Degradation Products"/>
            <status value="active"/>
            <code>
               <coding>
                  <system value="http://dummy.loinc.org"/>
                  <code value="DGP"/>
                  <display value="Degradation Products"/>
               </coding>
            </code>
            <method>
               <text value="Degradation products by UHPLC"/>
            </method>
            <qualifiedValue>
               <appliesTo> <!-- could be a code -->
                  <text value="Impurity 1"/>
               </appliesTo>
               <range>
                  <high>
                     <value value="0.2"/>
                     <unit value="% w/w"/>
                     <system value="http://unitsofmeasure.org"/>
                     <code value="%"/>
                  </high>
               </range>
            </qualifiedValue>
            <qualifiedValue>
               <appliesTo>
                  <text value="Impurity 2"/>
               </appliesTo>
               <range>
                  <high>
                     <value value="0.3"/>
                     <unit value="% w/w"/>
                     <system value="http://unitsofmeasure.org"/>
                     <code value="%"/>
                  </high>
               </range>
            </qualifiedValue>
            <qualifiedValue>
               <appliesTo>
                  <text value="Impurity 3"/>
               </appliesTo>
               <range>
                  <high>
                     <value value="0.3"/>
                     <unit value="% w/w"/>
                     <system value="http://unitsofmeasure.org"/>
                     <code value="%"/>
                  </high>
               </range>
            </qualifiedValue>
            <qualifiedValue>
               <appliesTo>
                  <text value="Individual unspecified degradation products"/>
               </appliesTo>
               <range>
                  <high>
                     <value value="0.2"/>
                     <unit value="% w/w"/>
                     <system value="http://unitsofmeasure.org"/>
                     <code value="%"/>
                  </high>
               </range>
            </qualifiedValue>
            <qualifiedValue>
               <appliesTo>
                  <text value="Total degradation products"/>
               </appliesTo>
               <range>
                  <high>
                     <value value="1.4"/>
                     <unit value="% w/w"/>
                     <system value="http://unitsofmeasure.org"/>
                     <code value="%"/>
                  </high>
               </range>
            </qualifiedValue>
            <component> <!-- are expected to have a component that says what impurity this one is -->
               <code>
                  <coding>
                     <system value="http://dummy.loinc.org"/>
                     <code value="IMP"/>
                     <display value="Impurity"/>
                  </coding>
               </code>
            </component>
         </ObservationDefinition>
      </resource>
   </entry>
   <entry>
      <fullUrl value="urn:uuid:31e29d22-5fcb-546e-24fd-52a4a4004467"/>
      <resource>
         <ObservationDefinition>
                <!--Water-->
            <id value="31e29d22-5fcb-546e-24fd-52a4a4004467"/>
            <!--http://example-server.com/fhir/ObservationDefinition/31e29d22-5fcb-546e-24fd-52a4a4004467-->
            <url value="http://example-server.com/fhir/ObservationDefinition/31e29d22-5fcb-546e-24fd-52a4a4004467"/>
            <title value="Water Content"/>
            <status value="active"/>
            <code>
               <coding>
                  <system value="http://dummy.loinc.org"/>
                  <code value="WWW"/>
                  <display value="Water Content"/>
               </coding>
               <text value="Water Content"/>
            </code>
            <method>
               <text value="USP &lt;921&gt;"/>
            </method>
            <qualifiedValue>
               <range>
                  <high>
                     <value value="1.0"/>
                     <unit value="% w/w"/>
                     <system value="http://unitsofmeasure.org"/>
                     <code value="%"/>
                  </high>
               </range>
            </qualifiedValue>
         </ObservationDefinition>
      </resource>
   </entry>
   <entry>
      <fullUrl value="urn:uuid:32e29d22-5fcb-546e-24fd-52a4a4004467"/>
      <resource>
         <ObservationDefinition>
                <!--LyophilizationWater-->
            <id value="32e29d22-5fcb-546e-24fd-52a4a4004467"/>
            <!--http://example-server.com/fhir/ObservationDefinition/32e29d22-5fcb-546e-24fd-52a4a4004467-->
            <url value="http://example-server.com/fhir/ObservationDefinition/32e29d22-5fcb-546e-24fd-52a4a4004467"/>
            <title value="Water Content"/>
            <status value="active"/>
            <code>
               <coding>
                  <system value="http://dummy.loinc.org"/>
                  <code value="WWW"/>
                  <display value="Water Content"/>
               </coding>
               <text value="Water Content"/>
            </code>
            <method>
               <text value="USP &lt;921&gt;"/>
            </method>
            <qualifiedValue>
               <range>
                  <high>
                     <value value="1.2"/>
                     <unit value="% w/w"/>
                     <system value="http://unitsofmeasure.org"/>
                     <code value="%"/>
                  </high>
               </range>
            </qualifiedValue>
         </ObservationDefinition>
      </resource>
   </entry>
   <entry>
      <fullUrl value="urn:uuid:32e29d22-6fcb-546e-24fd-52a4a4004467"/>
      <resource>
         <ObservationDefinition>
                <!--LyophilizationWaterHomogeneity-->
            <id value="32e29d22-6fcb-546e-24fd-52a4a4004467"/>
            <!--http://example-server.com/fhir/ObservationDefinition/32e29d22-6fcb-546e-24fd-52a4a4004467-->
            <url value="http://example-server.com/fhir/ObservationDefinition/32e29d22-6fcb-546e-24fd-52a4a4004467"/>
            <title value="Water Content"/>
            <status value="active"/>
            <code>
               <coding>
                  <system value="http://dummy.loinc.org"/>
                  <code value="WWWH"/>
                  <display value="Water Content Homogeneity"/>
               </coding>
               <text value="Moisture (%)"/>
            </code>
            <qualifiedValue>
               <extension url="http://hl7.org/fhir/uv/pharm-quality/StructureDefinition/Extension-qualified-value-display-pq">
                  <valueString value="± 1.4 % (w/w)"/>
               </extension>
               <range>
                  <low>
                     <value value="-1.5"/>
                     <unit value="% w/w"/>
                     <system value="http://unitsofmeasure.org"/>
                     <code value="%"/>
                  </low>
                  <high>
                     <value value="1.5"/>
                     <unit value="% w/w"/>
                     <system value="http://unitsofmeasure.org"/>
                     <code value="%"/>
                  </high>
               </range>
            </qualifiedValue>
            <component>
               <code>
                  <coding>
                     <system value="http://dummy.loinc.org"/>
                     <code value="SSE"/>
                     <display value="Statistically significant effects"/>
                  </coding>
                  <text value="Do statistically significant effects"/>
               </code>
            </component>
            <component>
               <code>
                  <coding>
                     <system value="http://dummy.loinc.org"/>
                     <code value="LCL"/>
                     <display value="Lower one-sided 95% confidence limit of Max Difference"/>
                  </coding>
                  <text value="Lower one-sided 95% confidence limit of Max Difference"/>
               </code>
            </component>
            <component>
               <code>
                  <coding>
                     <system value="http://dummy.loinc.org"/>
                     <code value="UCL"/>
                     <display value="Upper one-sided 95% confidence limit of Max Difference"/>
                  </coding>
                  <text value="Upper one-sided 95% confidence limit of Max Difference"/>
               </code>
            </component>
            <component>
               <code>
                  <coding>
                     <system value="http://dummy.loinc.org"/>
                     <code value="Homogeneity"/>
                     <display value="Homogeneity demonstrated"/>
                  </coding>
                  <text value="Was Homogeneity demonstrated?"/>
               </code>
            </component>
         </ObservationDefinition>
      </resource>
   </entry>
   <entry>
      <fullUrl value="urn:uuid:32e29d32-6fcb-546e-24fd-52a4a4004467"/>
      <resource>
         <ObservationDefinition>
                <!--LyophilizationAssayHomogeneity-->
            <id value="32e29d32-6fcb-546e-24fd-52a4a4004467"/>
            <!--http://example-server.com/fhir/ObservationDefinition/32e29d32-6fcb-546e-24fd-52a4a4004467-->
            <url value="http://example-server.com/fhir/ObservationDefinition/32e29d32-6fcb-546e-24fd-52a4a4004467"/>
            <title value="Assay"/>
            <status value="active"/>
            <code>
               <coding>
                  <system value="http://dummy.loinc.org"/>
                  <code value="ASSH"/>
                  <display value="Assay Content Homogeneity"/>
               </coding>
               <text value="Assay by HPLC (% Main Peak)"/>
            </code>
            <qualifiedValue>
               <extension url="http://hl7.org/fhir/uv/pharm-quality/StructureDefinition/Extension-qualified-value-display-pq">
                  <valueString value="± 2.3%"/>
               </extension>
               <range>
                  <low>
                     <value value="-2.3"/>
                     <unit value="%"/>
                     <system value="http://unitsofmeasure.org"/>
                     <code value="%"/>
                  </low>
                  <high>
                     <value value="2.3"/>
                     <unit value="%"/>
                     <system value="http://unitsofmeasure.org"/>
                     <code value="%"/>
                  </high>
               </range>
            </qualifiedValue>
            <component>
               <code>
                  <coding>
                     <system value="http://dummy.loinc.org"/>
                     <code value="SSE"/>
                     <display value="Statistically significant effects"/>
                  </coding>
                  <text value="Do statistically significant effects"/>
               </code>
            </component>
            <component>
               <code>
                  <coding>
                     <system value="http://dummy.loinc.org"/>
                     <code value="LCL"/>
                     <display value="Lower one-sided 95% confidence limit of Max Difference"/>
                  </coding>
                  <text value="Lower one-sided 95% confidence limit of Max Difference"/>
               </code>
            </component>
            <component>
               <code>
                  <coding>
                     <system value="http://dummy.loinc.org"/>
                     <code value="UCL"/>
                     <display value="Upper one-sided 95% confidence limit of Max Difference"/>
                  </coding>
                  <text value="Upper one-sided 95% confidence limit of Max Difference"/>
               </code>
            </component>
            <component>
               <code>
                  <coding>
                     <system value="http://dummy.loinc.org"/>
                     <code value="Homogeneity"/>
                     <display value="Homogeneity demonstrated"/>
                  </coding>
                  <text value="Was Homogeneity demonstrated?"/>
               </code>
            </component>
         </ObservationDefinition>
      </resource>
   </entry>
   <entry>
      <fullUrl value="urn:uuid:ef17cff1-6586-a5a4-9168-2602140548d7"/>
      <resource>
         <ObservationDefinition>
                <!--UniformityUSP-->
            <id value="ef17cff1-6586-a5a4-9168-2602140548d7"/>
            <!--http://example-server.com/fhir/ObservationDefinition/ef17cff1-6586-a5a4-9168-2602140548d7-->
            <url value="http://example-server.com/fhir/ObservationDefinition/ef17cff1-6586-a5a4-9168-2602140548d7"/>
            <title value="Uniformity of Dosage Units, Weight Variation - Meets USP / Ph. Eur. requirements (% label claim)"/>
            <status value="active"/>
            <code>
               <coding>
                  <system value="http://dummy.loinc.org"/>
                  <code value="ZZZ"/>
                  <display value="Uniformity of Dosage Units, Weight Variation"/>
               </coding>
               <text value="Uniformity of Dosage Units, Weight Variation"/>
            </code>
            <method>
               <text value="Weight variation"/>
            </method>
            <qualifiedValue>
               <range>
                  <low>
                     <value value="97"/>
                     <unit value="%"/>
                     <system value="http://unitsofmeasure.org"/>
                     <code value="%"/>
                  </low>
               </range>
            </qualifiedValue>
         </ObservationDefinition>
      </resource>
   </entry>
   <entry>
      <fullUrl value="urn:uuid:ef17cff1-6586-a5a4-9168-2602140548d8"/>
      <resource>
         <ObservationDefinition>
                <!--UniformityAcceptance-->
            <id value="ef17cff1-6586-a5a4-9168-2602140548d8"/>
            <!--http://example-server.com/fhir/ObservationDefinition/ef17cff1-6586-a5a4-9168-2602140548d8-->
            <url value="http://example-server.com/fhir/ObservationDefinition/ef17cff1-6586-a5a4-9168-2602140548d8"/>
            <title value="Uniformity of Dosage Units, Weight Variation - Acceptance Value (AV)"/>
            <status value="active"/>
            <code>
               <coding>
                  <system value="http://dummy.loinc.org"/>
                  <code value="ZZZ"/>
                  <display value="Uniformity of Dosage Units, Weight Variation - Acceptance Value (AV)"/>
               </coding>
               <text value="Uniformity of Dosage Units, Weight Variation - Acceptance Value (AV)"/>
            </code>
            <method>
               <text value="Weight variation"/>
            </method>
            <qualifiedValue>
               <range>
                  <high>
                     <value value="25"/>
                     <!-- what are units of acceptance value? -->
                  </high>
               </range>
            </qualifiedValue>
         </ObservationDefinition>
      </resource>
   </entry>
   <entry>
      <fullUrl value="urn:uuid:fc17b5d6-9fe1-91c2-2d06-47cb5b295e72"/>
      <resource>
         <ObservationDefinition>
                <!--releasepH-->
            <id value="fc17b5d6-9fe1-91c2-2d06-47cb5b295e72"/>
            <!--http://example-server.com/fhir/ObservationDefinition/fc17b5d6-9fe1-91c2-2d06-47cb5b295e72-->
            <url value="http://example-server.com/fhir/ObservationDefinition/fc17b5d6-9fe1-91c2-2d06-47cb5b295e72"/>
            <title value="pH (reconstituted)"/>
            <status value="active"/>
            <code>
               <coding>
                  <system value="http://dummy.loinc.org"/>
                  <code value="XXX"/>
                  <display value="pH (reconstituted)"/>
               </coding>
               <text value="pH (reconstituted)"/>
            </code>
            <qualifiedValue>
               <range>
                  <low>
                     <value value="6.95"/>
                     <unit value="pH"/>
                     <system value="http://unitsofmeasure.org"/>
                     <code value="pH"/>
                  </low>
                  <high>
                     <value value="7.05"/>
                     <unit value="pH"/>
                     <system value="http://unitsofmeasure.org"/>
                     <code value="pH"/>
                  </high>
               </range>
            </qualifiedValue>
         </ObservationDefinition>
      </resource>
   </entry>
   <!-- filling steps -->
   <entry>
      <fullUrl value="urn:uuid:22515a3c-5034-448a-9c19-938ce1958424"/>
      <resource>
         <ObservationDefinition>
                <!--conclusion-->
            <id value="22515a3c-5034-448a-9c19-938ce1958424"/>
            <!--http://example-server.com/fhir/ObservationDefinition/22515a3c-5034-448a-9c19-938ce1958424-->
            <url value="http://example-server.com/fhir/ObservationDefinition/22515a3c-5034-448a-9c19-938ce1958424"/>
            <title value="Conclusion"/>
            <status value="active"/>
            <code>
               <coding>
                  <system value="http://dummy.loinc.org"/>
                  <code value="XXX"/>
                  <display value="Conclusion"/>
               </coding>
               <text value="Conclusion"/>
            </code>
         </ObservationDefinition>
      </resource>
   </entry>
   <entry>
      <fullUrl value="urn:uuid:64505a3c-5034-448a-9c19-938ce1958424"/>
      <resource>
         <ObservationDefinition>
                <!--TAMC-->
            <id value="64505a3c-5034-448a-9c19-938ce1958424"/>
            <!--http://example-server.com/fhir/ObservationDefinition/64505a3c-5034-448a-9c19-938ce1958424-->
            <url value="http://example-server.com/fhir/ObservationDefinition/64505a3c-5034-448a-9c19-938ce1958424"/>
            <title value="TAMC [a]"/>
            <status value="active"/>
            <code>
               <coding>
                  <system value="http://dummy.loinc.org"/>
                  <code value="XXX"/>
                  <display value="TAMC"/>
               </coding>
               <text value="TAMC"/>
            </code>
            <qualifiedValue>
               <range>
                  <high>
                     <value value="10"/>
                     <unit value="CFU/100ml"/>
                     <!-- todo UCUM -->
                  </high>
               </range>
            </qualifiedValue>
         </ObservationDefinition>
      </resource>
   </entry>
   <entry>
      <fullUrl value="urn:uuid:64515a3c-5034-448a-9c19-938ce1958424"/>
      <resource>
         <ObservationDefinition>
                <!--TYMC-->
            <id value="64515a3c-5034-448a-9c19-938ce1958424"/>
            <!--http://example-server.com/fhir/ObservationDefinition/64515a3c-5034-448a-9c19-938ce1958424-->
            <url value="http://example-server.com/fhir/ObservationDefinition/64515a3c-5034-448a-9c19-938ce1958424"/>
            <title value="TYMC [a]"/>
            <status value="active"/>
            <code>
               <coding>
                  <system value="http://dummy.loinc.org"/>
                  <code value="XXX"/>
                  <display value="TAMC"/>
               </coding>
               <text value="TAMC"/>
            </code>
            <qualifiedValue>
               <range>
                  <high>
                     <value value="10"/>
                     <unit value="CFU/100ml"/>
                     <!-- todo UCUM -->
                  </high>
               </range>
            </qualifiedValue>
         </ObservationDefinition>
      </resource>
   </entry>
   <entry>
      <fullUrl value="urn:uuid:64515a3c-5134-448a-9c19-938ce1958424"/>
      <resource>
         <ObservationDefinition>
                <!--FillWeightAverage-->
            <id value="64515a3c-5134-448a-9c19-938ce1958424"/>
            <!--http://example-server.com/fhir/ObservationDefinition/64515a3c-5134-448a-9c19-938ce1958424-->
            <url value="http://example-server.com/fhir/ObservationDefinition/64515a3c-5134-448a-9c19-938ce1958424"/>
            <title value="Fill Weight Average"/>
            <status value="active"/>
            <code>
               <coding>
                  <system value="http://dummy.loinc.org"/>
                  <code value="XXX"/>
                  <display value="Fill Weight Average"/>
               </coding>
            </code>
            <qualifiedValue>  
                    <!-- todo probably want to just not have this, detect that, and show as N/A -->
               <extension url="http://hl7.org/fhir/uv/pharm-quality/StructureDefinition/Extension-qualified-value-text-pq">
                  <valueString value="N/A"/>
               </extension>
            </qualifiedValue>
         </ObservationDefinition>
      </resource>
   </entry>
   <entry>
      <fullUrl value="urn:uuid:64525a3c-5134-448a-9c19-938ce1958424"/>
      <resource>
         <ObservationDefinition>
                <!--FillWeightTarget-->
            <id value="64525a3c-5134-448a-9c19-938ce1958424"/>
            <!--http://example-server.com/fhir/ObservationDefinition/64525a3c-5134-448a-9c19-938ce1958424-->
            <url value="http://example-server.com/fhir/ObservationDefinition/64525a3c-5134-448a-9c19-938ce1958424"/>
            <title value="Fill Weight Target"/>
            <status value="active"/>
            <code>
               <coding>
                  <system value="http://dummy.loinc.org"/>
                  <code value="XXX"/>
                  <display value="Fill Weight Target (g)"/>
               </coding>
            </code>
            <qualifiedValue>  <!-- todo probably want to just not have this, detect that, and show as N/A -->
               <extension url="http://hl7.org/fhir/uv/pharm-quality/StructureDefinition/Extension-qualified-value-text-pq">
                  <valueString value="N/A"/>
               </extension>
            </qualifiedValue>
         </ObservationDefinition>
      </resource>
   </entry>
   <entry>
      <fullUrl value="urn:uuid:64515a3c-5134-448a-9c29-938ce1958424"/>
      <resource>
         <ObservationDefinition>
                <!--FillWeightAverageFromTarget-->
            <id value="64515a3c-5134-448a-9c29-938ce1958424"/>
            <!--http://example-server.com/fhir/ObservationDefinition/64515a3c-5134-448a-9c29-938ce1958424-->
            <url value="http://example-server.com/fhir/ObservationDefinition/64515a3c-5134-448a-9c29-938ce1958424"/>
            <title value="Actual Avg. Weight from Target"/>
            <status value="active"/>
            <code>
               <coding>
                  <system value="http://dummy.loinc.org"/>
                  <code value="XXX"/>
                  <display value="Actual Avg. Weight from Target"/>
               </coding>
            </code>
            <qualifiedValue>
               <extension url="http://hl7.org/fhir/uv/pharm-quality/StructureDefinition/Extension-qualified-value-display-pq">
                  <valueString value="± 2% target (%)"/>
               </extension>
               <range>
                  <low>
                     <value value="2"/>
                     <unit value="%"/>
                     <system value="http://unitsofmeasure.org"/>
                     <code value="%"/>
                  </low>
                  <high>
                     <value value="2"/>
                     <unit value="%"/>
                     <system value="http://unitsofmeasure.org"/>
                     <code value="%"/>
                  </high>
               </range>
            </qualifiedValue>
         </ObservationDefinition>
      </resource>
   </entry>
   <entry>
      <fullUrl value="urn:uuid:64515a3c-5234-448a-9c29-938ce1958424"/>
      <resource>
         <ObservationDefinition>
                <!--HoldTimeFiltrationToFilling-->
            <id value="64515a3c-5234-448a-9c29-938ce1958424"/>
            <!--http://example-server.com/fhir/ObservationDefinition/64515a3c-5234-448a-9c29-938ce1958424-->
            <url value="http://example-server.com/fhir/ObservationDefinition/64515a3c-5234-448a-9c29-938ce1958424"/>
            <title value="Hold Time (filtration To filling)"/>
            <status value="active"/>
            <code>
               <coding>
                  <system value="http://dummy.loinc.org"/>
                  <code value="XXX"/>
                  <display value="Hold Time (filtration To filling)"/>
               </coding>
            </code>
            <qualifiedValue>
               <range>
                  <high>
                     <value value="2.5"/>
                     <unit value="hours"/>
                     <system value="http://unitsofmeasure.org"/>
                     <code value="h"/>
                  </high>
               </range>
            </qualifiedValue>
         </ObservationDefinition>
      </resource>
   </entry>
   <entry>
      <fullUrl value="urn:uuid:64515a3c-5334-448a-9c29-938ce1958424"/>
      <resource>
         <ObservationDefinition>
                <!--HoldTimeFilling-->
            <id value="64515a3c-5334-448a-9c29-938ce1958424"/>
            <!--http://example-server.com/fhir/ObservationDefinition/64515a3c-5334-448a-9c29-938ce1958424-->
            <url value="http://example-server.com/fhir/ObservationDefinition/64515a3c-5334-448a-9c29-938ce1958424"/>
            <title value="Hold Time (start filling to end filling)"/>
            <status value="active"/>
            <code>
               <coding>
                  <system value="http://dummy.loinc.org"/>
                  <code value="XXX"/>
                  <display value="Hold Time (start filling to end filling)"/>
               </coding>
            </code>
            <qualifiedValue>
               <range>
                  <high>
                     <value value="1.25"/>
                     <unit value="hours"/>
                     <system value="http://unitsofmeasure.org"/>
                     <code value="h"/>
                  </high>
               </range>
            </qualifiedValue>
         </ObservationDefinition>
      </resource>
   </entry>
   <entry>
      <fullUrl value="urn:uuid:64535a3c-5334-448a-9c29-938ce1958424"/>
      <resource>
         <ObservationDefinition>
                <!--FilterIntegrity-->
            <id value="64535a3c-5334-448a-9c29-938ce1958424"/>
            <!--http://example-server.com/fhir/ObservationDefinition/64535a3c-5334-448a-9c29-938ce1958424-->
            <url value="http://example-server.com/fhir/ObservationDefinition/64535a3c-5334-448a-9c29-938ce1958424"/>
            <title value="Filter Integrity Test"/>
            <status value="active"/>
            <code>
               <coding>
                  <system value="http://dummy.loinc.org"/>
                  <code value="XXX"/>
                  <display value="Filter Integrity Test"/>
               </coding>
            </code>
            <qualifiedValue>
               <range>
                  <low>
                     <value value="3.5"/>
                     <unit value="psi"/>
                     <system value="http://unitsofmeasure.org"/>
                     <code value="[psi]"/>
                     <!-- out of scope of ucum apparently -->
                  </low>
               </range>
            </qualifiedValue>
         </ObservationDefinition>
      </resource>
   </entry>
   <!-- Lyophilization step -->
   <entry>
      <fullUrl value="urn:uuid:22525a3c-5034-448a-9c19-938ce1958424"/>
      <resource>
         <ObservationDefinition>
                <!--LyophilizationConclusion-->
            <id value="22525a3c-5034-448a-9c19-938ce1958424"/>
            <!--http://example-server.com/fhir/ObservationDefinition/22525a3c-5034-448a-9c19-938ce1958424-->
            <url value="http://example-server.com/fhir/ObservationDefinition/22525a3c-5034-448a-9c19-938ce1958424"/>
            <title value="Conclusion"/>
            <status value="active"/>
            <code>
               <coding>
                  <system value="http://dummy.loinc.org"/>
                  <code value="XXX"/>
                  <display value="Conclusion"/>
               </coding>
               <text value="Conclusion"/>
            </code>
         </ObservationDefinition>
      </resource>
   </entry>
   <entry>
      <fullUrl value="urn:uuid:64535a3c-5334-448a-9c29-938ce2958424"/>
      <resource>
         <ObservationDefinition>
				<!--LyophilizerNumber-->
            <id value="64535a3c-5334-448a-9c29-938ce2958424"/>
            <!--http://example-server.com/fhir/ObservationDefinition/64535a3c-5334-448a-9c29-938ce2958424-->
            <url value="http://example-server.com/fhir/ObservationDefinition/64535a3c-5334-448a-9c29-938ce2958424"/>
            <title value="Lyophilizer Number"/>
            <status value="active"/>
            <code>
               <coding>
                  <system value="http://dummy.loinc.org"/>
                  <code value="XXX"/>
                  <display value="Lyophilizer Number"/>
               </coding>
            </code>
            <!--qualifiedValue>  
					
				</qualifiedValue-->
         </ObservationDefinition>
      </resource>
   </entry>
   <entry>
      <fullUrl value="urn:uuid:22e7e672-40a6-4036-3c1f-b8ba6a7d045e"/>
      <resource>
         <ObservationDefinition>
                <!--LyophilizationAssay-->
            <id value="22e7e672-40a6-4036-3c1f-b8ba6a7d045e"/>
            <!--http://example-server.com/fhir/ObservationDefinition/22e7e672-40a6-4036-3c1f-b8ba6a7d045e-->
            <url value="http://example-server.com/fhir/ObservationDefinition/22e7e672-40a6-4036-3c1f-b8ba6a7d045e"/>
            <title value="Assay"/>
            <status value="active"/>
            <code>
               <coding>
                  <system value="http://dummy.loinc.org"/>
                  <code value="XXX"/>
                  <display value="Assay"/>
               </coding>
               <text value="Assay"/>
            </code>
            <method>
               <text value="Assay by UHPLC"/>
            </method>
            <qualifiedValue>
               <extension url="http://hl7.org/fhir/uv/pharm-quality/StructureDefinition/Extension-qualified-value-display-pq">
                  <valueString value="95% to 105% of label claim"/>
               </extension>
               <range>
                  <low>
                     <value value="95"/>
                     <unit value="%"/>
                     <system value="http://unitsofmeasure.org"/>
                     <code value="%"/>
                  </low>
                  <high>
                     <value value="105"/>
                     <unit value="%"/>
                     <system value="http://unitsofmeasure.org"/>
                     <code value="%"/>
                  </high>
               </range>
            </qualifiedValue>
            <component> <!-- are expected to have a component that says number of locations -->
               <code>
                  <coding>
                     <system value="http://dummy.loinc.org"/>
                     <code value="LOC"/>
                     <display value="Number of Locations"/>
                  </coding>
               </code>
            </component>
         </ObservationDefinition>
      </resource>
   </entry>
   <!-- Section 8 - Batch or Lot Information (batch 1 of 3) -->
   <entry>
      <fullUrl value="urn:uuid:339b69fd-4ab1-a1e9-9ea5-1972ba2f6b51"/>
      <resource>
         <Medication>
            	<!--medication-batch-information-pq-ex2-->
            <id value="339b69fd-4ab1-a1e9-9ea5-1972ba2f6b51"/>
            <meta>
               <profile value="http://hl7.org/fhir/uv/pharm-quality/StructureDefinition/Medication-batch-information-drug-pq"/>
            </meta>
            <code>
               <extension url="http://hl7.org/fhir/uv/pharm-quality/StructureDefinition/Extension-medication-definition-pq">
                  <valueReference> <!-- todo consider change this be the MID? --> 
                            <!--MedicinalProductDefinition/medicinalproductdefinition-drug-product-pq-ex1-->
                     <reference value="MedicinalProductDefinition/a0694a7a-aafa-4cbe-8135-c788a9a4d3d5"/>
                     <!--reference value="urn:uuid:a0694a7a-aafa-4cbe-8135-c788a9a4d3d5"/-->
                  </valueReference>
               </extension>
            </code>
            <batch>
               <extension url="http://hl7.org/fhir/StructureDefinition/medication-manufacturingBatch">
                  <extension url="http://hl7.org/fhir/uv/pharm-quality/StructureDefinition/Extension-batch-release-date-pq">
                     <valueDateTime value="2019-09-08"/>
                     <!-- #171 -->
                  </extension>
                  <!--extension url="http://hl7.org/fhir/uv/pharm-quality/StructureDefinition/Extension-manufacturing-process-pq">
                            <valueReference>
                                <reference value="PlanDefinition/plandefinition-mnf-process-pq-ex1"/>
                            </valueReference>
                        </extension-->
                  <extension url="http://hl7.org/fhir/uv/pharm-quality/StructureDefinition/Extension-batch-designation-pq">
                     <valueCodeableConcept>
                        <coding>
                           <system value="http://temp.hl7.org/fhir/us/pq-cmc/CodeSystem/pqcmc-batch-designation"/>
                           <code value="maximum"/>
                           <display value="Maximum"/>
                        </coding>
                        <text value="Maximum"/>
                     </valueCodeableConcept>
                  </extension>
                  <extension url="http://hl7.org/fhir/uv/pharm-quality/StructureDefinition/Extension-batch-number-of-vials-pq">
                     <valuePositiveInt value="3"/>
                  </extension>
                  <extension url="http://hl7.org/fhir/uv/pharm-quality/StructureDefinition/Extension-batch-substance-batch-pq">
                     <valueReference>
                    		    <!--Substance/substance-drug-pq-ex1-->
                        <reference value="Substance/fc078762-81c5-5656-9744-13c7ad1e595b"/>
                     </valueReference>
                  </extension>
                  <extension url="manufacturingDate">
                     <valueDateTime value="2020-06"/>
                  </extension>
                  <extension url="http://hl7.org/fhir/uv/pharm-quality/StructureDefinition/Extension-packaging-date-pq"> <!-- #159 -->
                     <valueDateTime value="2020-08"/>
                  </extension>
                  <extension url="http://hl7.org/fhir/uv/pharm-quality/StructureDefinition/Extension-packaging-site-pq">
                     <valueReference>
                            	<!--Organization/organization-drug-pq-ex1-->
                        <reference value="Organization/49d2f0c0-4b28-9271-8aaf-2996a8b9739c"/>
                     </valueReference>
                  </extension>
                  <extension url="batchQuantity">
                     <valueQuantity>
                        <value value="100100"/>
                        <unit value="tablets"/>
                     </valueQuantity>
                  </extension>
                  <extension url="http://hl7.org/fhir/uv/pharm-quality/StructureDefinition/Extension-actual-yield-pq">
                     <valueQuantity> <!-- #160 -->
                        <value value="4.81"/>
                        <unit value="kg"/>
                     </valueQuantity>
                  </extension>
                  <extension url="http://hl7.org/fhir/uv/pharm-quality/StructureDefinition/Extension-actual-yield-unfiltered-pq">
                     <valueQuantity>
                        <value value="4.91"/>
                        <unit value="kg"/>
                     </valueQuantity>
                  </extension>
                  <extension url="http://hl7.org/fhir/uv/pharm-quality/StructureDefinition/Extension-target-fill-weight-pq">
                     <valueQuantity>
                        <value value="30"/>
                        <unit value="g"/>
                     </valueQuantity>
                  </extension>
                  <extension url="batchUtilization"> <!-- #159 -->
                     <valueCodeableConcept>
                        <coding>
                           <system value="http://temp.hl7.org/fhir/us/pq-cmc/CodeSystem/pqcmc-batch-utilization-terminology"/>
                           <code value="C133990"/>
                           <display value="Commercial"/>
                        </coding>
                        <text value="Production"/>
                     </valueCodeableConcept>
                  </extension>
                  <extension url="assignedManufacturer">
                     <valueReference> <!-- #158 -->
                            	<!--reference value="Organization/manufacturer"/-->
                            	<!--Organization/organization-drug-pq-ex1-->
                        <reference value="Organization/49d2f0c0-4b28-9271-8aaf-2996a8b9739c"/>
                     </valueReference>
                  </extension>
                  <extension url="container">
                     <extension url="closureSystemDescription">
                        <valueString value="100 cc HDPE Bottle 2 g desiccant"/>
                     </extension>
                  </extension>
               </extension>
               <!-- #153 -->
               <lotNumber value="33445"/>
            </batch>
         </Medication>
      </resource>
   </entry>
   <!-- Section 8 - Batch or Lot Information (another batch 2 of 3) -->
   <entry>
      <fullUrl value="urn:uuid:a9dfda53-734b-045f-7ae4-94a6281d53bc"/>
      <resource>
         <Medication>
                <!--medication-actual-batch-2-->
            <id value="a9dfda53-734b-045f-7ae4-94a6281d53bc"/>
            <code>
               <extension url="http://hl7.org/fhir/uv/pharm-quality/StructureDefinition/Extension-medication-definition-pq">
                  <valueReference>
                            <!--MedicinalProductDefinition/medicinalproductdefinition-drug-product-pq-ex1-->
                     <reference value="MedicinalProductDefinition/a0694a7a-aafa-4cbe-8135-c788a9a4d3d5"/>
                  </valueReference>
               </extension>
            </code>
            <batch>
               <extension url="http://hl7.org/fhir/StructureDefinition/medication-manufacturingBatch">
                  <extension url="http://hl7.org/fhir/uv/pharm-quality/StructureDefinition/Extension-batch-release-date-pq">
                     <valueDateTime value="2019-09-08"/>
                  </extension>
                  <!--extension url="http://hl7.org/fhir/uv/pharm-quality/StructureDefinition/Extension-manufacturing-process-pq">
                            <valueReference>
                                <reference value="PlanDefinition/plandefinition-mnf-process-pq-ex1"/>
                            </valueReference>
                        </extension-->
                  <extension url="http://hl7.org/fhir/uv/pharm-quality/StructureDefinition/Extension-batch-designation-pq">
                     <valueCodeableConcept>
                        <coding>
                           <system value="http://temp.hl7.org/fhir/us/pq-cmc/CodeSystem/pqcmc-batch-designation"/>
                           <code value="maximum"/>
                           <display value="Maximum"/>
                        </coding>
                        <text value="Maximum"/>
                     </valueCodeableConcept>
                  </extension>
                  <extension url="http://hl7.org/fhir/uv/pharm-quality/StructureDefinition/Extension-batch-number-of-vials-pq">
                     <valuePositiveInt value="4"/>
                  </extension>
                  <extension url="http://hl7.org/fhir/uv/pharm-quality/StructureDefinition/Extension-batch-substance-batch-pq">
                     <valueReference>
                    			<!--Substance/actual-batch-substance-2-->
                        <reference value="Substance/cb31d747-2338-88d5-342c-8e9c097e4dad"/>
                     </valueReference>
                  </extension>
                  <extension url="manufacturingDate">
                     <valueDateTime value="2020-06"/>
                  </extension>
                  <extension url="http://hl7.org/fhir/uv/pharm-quality/StructureDefinition/Extension-packaging-date-pq">
                     <valueDateTime value="2020-08"/>
                  </extension>
                  <extension url="http://hl7.org/fhir/uv/pharm-quality/StructureDefinition/Extension-packaging-site-pq">
                     <valueReference>
                                <!--Organization/packaging-->
                        <reference value="Organization/378fbe5f-5926-3a5c-4c64-5428df877b07"/>
                     </valueReference>
                  </extension>
                  <extension url="batchQuantity">
                     <valueQuantity>
                        <value value="100050"/>
                        <unit value="tablets"/>
                     </valueQuantity>
                  </extension>
                  <extension url="http://hl7.org/fhir/uv/pharm-quality/StructureDefinition/Extension-actual-yield-pq">
                     <valueQuantity>
                        <value value="4.82"/>
                        <unit value="kg"/>
                     </valueQuantity>
                  </extension>
                  <extension url="http://hl7.org/fhir/uv/pharm-quality/StructureDefinition/Extension-actual-yield-unfiltered-pq">
                     <valueQuantity>
                        <value value="4.92"/>
                        <unit value="kg"/>
                     </valueQuantity>
                  </extension>
                  <extension url="http://hl7.org/fhir/uv/pharm-quality/StructureDefinition/Extension-target-fill-weight-pq">
                     <valueQuantity>
                        <value value="30"/>
                        <unit value="g"/>
                     </valueQuantity>
                  </extension>
                  <extension url="batchUtilization">
                     <valueCodeableConcept>
                        <coding>
                           <system value="http://temp.hl7.org/fhir/us/pq-cmc/CodeSystem/pqcmc-batch-utilization-terminology"/>
                           <code value="C185328"/>
                           <display value="Stability Study"/>
                        </coding>
                        <text value="PPQ / Stability"/>
                     </valueCodeableConcept>
                  </extension>
                  <extension url="assignedManufacturer">
                     <valueReference>
                                <!--Organization/manufacturer-->
                        <reference value="Organization/0102bca4-46c1-a6bf-1025-cd403fee710a"/>
                     </valueReference>
                  </extension>
                  <extension url="container">
                     <extension url="closureSystemDescription">
                        <valueString value="100 cc HDPE Bottle 2 g desiccant"/>
                     </extension>
                  </extension>
               </extension>
               <lotNumber value="33446"/>
            </batch>
         </Medication>
      </resource>
   </entry>
   <!-- Section 8 - Batch or Lot Information (another batch 3 of 3) -->
   <entry>
      <fullUrl value="urn:uuid:c6f5fadd-62e6-3a01-93d9-b3b182f67d06"/>
      <resource>
         <Medication>
                <!--medication-actual-batch-3-->
            <id value="c6f5fadd-62e6-3a01-93d9-b3b182f67d06"/>
            <code>
               <extension url="http://hl7.org/fhir/uv/pharm-quality/StructureDefinition/Extension-medication-definition-pq">
                  <valueReference>
                            <!--MedicinalProductDefinition/medicinalproductdefinition-drug-product-pq-ex1-->
                     <reference value="MedicinalProductDefinition/a0694a7a-aafa-4cbe-8135-c788a9a4d3d5"/>
                  </valueReference>
               </extension>
            </code>
            <batch>
               <extension url="http://hl7.org/fhir/StructureDefinition/medication-manufacturingBatch">
                  <extension url="http://hl7.org/fhir/uv/pharm-quality/StructureDefinition/Extension-batch-release-date-pq">
                     <valueDateTime value="2019-09-08"/>
                  </extension>
                  <!--extension url="http://hl7.org/fhir/uv/pharm-quality/StructureDefinition/Extension-manufacturing-process-pq">
                            <valueReference>
                                <reference value="PlanDefinition/plandefinition-mnf-process-pq-ex1"/>
                            </valueReference>
                        </extension-->
                  <extension url="http://hl7.org/fhir/uv/pharm-quality/StructureDefinition/Extension-batch-designation-pq">
                     <valueCodeableConcept>
                        <coding>
                           <system value="http://temp.hl7.org/fhir/us/pq-cmc/CodeSystem/pqcmc-batch-designation"/>
                           <code value="maximum"/>
                           <display value="Maximum"/>
                        </coding>
                        <text value="Maximum"/>
                     </valueCodeableConcept>
                  </extension>
                  <extension url="http://hl7.org/fhir/uv/pharm-quality/StructureDefinition/Extension-batch-number-of-vials-pq">
                     <valuePositiveInt value="3"/>
                  </extension>
                  <extension url="http://hl7.org/fhir/uv/pharm-quality/StructureDefinition/Extension-batch-substance-batch-pq">
                     <valueReference>
                    			<!--Substance/actual-batch-substance-3-->
                        <reference value="Substance/1551f97b-6f6d-825e-1fb3-44b0b090808c"/>
                     </valueReference>
                  </extension>
                  <extension url="manufacturingDate">
                     <valueDateTime value="2020-06"/>
                  </extension>
                  <extension url="http://hl7.org/fhir/uv/pharm-quality/StructureDefinition/Extension-packaging-date-pq">
                     <valueDateTime value="2020-08"/>
                  </extension>
                  <extension url="http://hl7.org/fhir/uv/pharm-quality/StructureDefinition/Extension-packaging-site-pq">
                     <valueReference>
                                <!--Organization/packaging-->
                        <reference value="Organization/378fbe5f-5926-3a5c-4c64-5428df877b07"/>
                     </valueReference>
                  </extension>
                  <extension url="batchQuantity">
                     <valueQuantity>
                        <value value="100125"/>
                        <unit value="tablets"/>
                     </valueQuantity>
                  </extension>
                  <extension url="http://hl7.org/fhir/uv/pharm-quality/StructureDefinition/Extension-actual-yield-pq">
                     <valueQuantity>
                        <value value="4.83"/>
                        <unit value="kg"/>
                     </valueQuantity>
                  </extension>
                  <extension url="http://hl7.org/fhir/uv/pharm-quality/StructureDefinition/Extension-actual-yield-unfiltered-pq">
                     <valueQuantity>
                        <value value="4.93"/>
                        <unit value="kg"/>
                     </valueQuantity>
                  </extension>
                  <extension url="http://hl7.org/fhir/uv/pharm-quality/StructureDefinition/Extension-target-fill-weight-pq">
                     <valueQuantity>
                        <value value="30"/>
                        <unit value="g"/>
                     </valueQuantity>
                  </extension>
                  <extension url="batchUtilization">
                     <valueCodeableConcept>
                        <coding>
                           <system value="http://temp.hl7.org/fhir/us/pq-cmc/CodeSystem/pqcmc-batch-utilization-terminology"/>
                           <code value="C185328"/>
                           <display value="Stability Study"/>
                        </coding>
                        <text value="PPQ / Stability"/>
                     </valueCodeableConcept>
                  </extension>
                  <extension url="assignedManufacturer">
                     <valueReference>
                                <!--Organization/manufacturer-->
                        <reference value="Organization/0102bca4-46c1-a6bf-1025-cd403fee710a"/>
                     </valueReference>
                  </extension>
                  <extension url="container">
                     <extension url="closureSystemDescription">
                        <valueString value="100 cc HDPE Bottle 2 g desiccant"/>
                     </extension>
                  </extension>
               </extension>
               <lotNumber value="33447"/>
            </batch>
         </Medication>
      </resource>
   </entry>
   <!-- Section 4.1 - Manufacturer -->
   <entry>
      <fullUrl value="urn:uuid:0102bca4-46c1-a6bf-1025-cd403fee710a"/>
      <resource>
         <Organization>
                <!--manufacturer-->
            <id value="0102bca4-46c1-a6bf-1025-cd403fee710a"/>
            <identifier>
                    <!-- FDA establishment identifier -->
               <system value="urn:oid:2.16.840.1.113883.4.82"/>
               <value value="3010027650"/>
            </identifier>
            <name value="AAA Pharmaceutical, Inc."/>
            <contact>
               <address>
                  <line value="681 Main Street"/>
                  <city value="Lumberton"/>
                  <state value="New Jersey"/>
                  <postalCode value="08048"/>
                  <country value="USA"/>
               </address>
            </contact>
         </Organization>
      </resource>
   </entry>
   <entry>
      <fullUrl value="urn:uuid:378fbe5f-5926-3a5c-4c64-5428df877b07"/>
      <resource>
         <Organization>
                <!--packaging-->
            <id value="378fbe5f-5926-3a5c-4c64-5428df877b07"/>
            <name value="MySite"/>
         </Organization>
      </resource>
   </entry>
   <entry>
      <fullUrl value="urn:uuid:378fbe5f-5926-3a5c-4c64-5428df877b08"/>
      <resource>
         <Organization>
                <!--testing lab-->
                <!--378fbe5f-5926-3a5c-4c64-5428df877b08-->
            <id value="378fbe5f-5926-3a5c-4c64-5428df877b08"/>
            <name value="Testing Lab"/>
         </Organization>
      </resource>
   </entry>
   <!-- Diagnostic report doesn't carry much extra value but does collect all the observations -->
   <entry>
      <fullUrl value="urn:uuid:b664977d-799d-a1ce-928a-5def2a9955bd"/>
      <resource>
         <DiagnosticReport>
                <!-- ideally this wants a subject, but it can only be a Medication (batch) and we have multiple. 
                     however the observations themselves do have subjects -->
                <!--processValidationReport-->
            <id value="b664977d-799d-a1ce-928a-5def2a9955bd"/>
            <extension url="http://hl7.org/fhir/StructureDefinition/workflow-triggeredBy">
               <valueReference>
                        <!--PlanDefinition/validationProtocol-->
                  <reference value="PlanDefinition/2038e4c7-22b8-4c56-2d28-6c077648763f"/>
               </valueReference>
            </extension>
            <status value="final"/>
            <code>
               <coding>
                  <system value="http://accumulus.org/fhir/code/reportType"/>
                  <code value="1113"/>
                  <display value="Process Validation Report"/>
               </coding>
            </code>
            <effectiveDateTime value="2020-12"/>
            <result><!--Observation/compoundingpHPre1-->
               <reference value="Observation/9c56948a-2a39-6609-1c01-4d197ea57a33"/>
            </result>
            <result><!--Observation/compoundingpHPre2-->
               <reference value="Observation/9c56948a-3a39-6609-1c01-4d197ea57a33"/>
            </result>
            <result><!--Observation/compoundingpHPre3-->
               <reference value="Observation/9c56948a-4a39-6609-1c01-4d197ea57a33"/>
            </result>
            <result><!--Observation/compoundingpHPost1-->
               <reference value="Observation/9c56948a-3a49-6609-1c01-4d197ea57a33"/>
            </result>
            <result><!--Observation/compoundingpHPost2-->
               <reference value="Observation/9c56958a-4a39-6609-1c01-4d197ea57a33"/>
            </result>
            <result><!--Observation/compoundingpHPost3-->
               <reference value="Observation/9c56948a-5a39-6609-1c01-4d197ea57a33"/>
            </result>
            <result><!--Observation/compoundingAssayPre1-->
               <reference value="Observation/9c56948a-2a39-6609-1c01-4d297ea57a33"/>
            </result>
            <result><!--Observation/compoundingAssayPre2-->
               <reference value="Observation/9c56948a-3a39-6619-1c01-4d197ea57a33"/>
            </result>
            <result><!--Observation/compoundingAssayPre3-->
               <reference value="Observation/9c56948a-4a39-6619-1c01-4d197ea57a33"/>
            </result>
            <result><!--Observation/compoundingAssayPost1-->
               <reference value="Observation/9c56948a-3a49-6619-1c01-4d197ea57a33"/>
            </result>
            <result><!--Observation/compoundingAssayPost2-->
               <reference value="Observation/9c56958a-4a39-6619-1c01-4d197ea57a33"/>
            </result>
            <result><!--Observation/compoundingAssayPost3-->
               <reference value="Observation/9c56948a-5a39-6709-1c01-4d197ea57a33"/>
            </result>
            <result>
                    <!--Observation/observationIdentification-->
               <reference value="Observation/f0a04328-905c-4ec5-372e-4d6cfef18629"/>
            </result>
            <result>
                    <!--Observation/observationIdentification2-->
               <reference value="Observation/5e5a5e67-7fc6-0064-1be9-5d9d14d887e5"/>
            </result>
            <result>
                    <!--Observation/observationIdentification3-->
               <reference value="Observation/cfde6776-673c-72e2-68c4-07b77cd85b74"/>
            </result>
            <result>
                    <!--Observation/observationAssay-->
               <reference value="Observation/9c56948a-1a39-6609-1c01-4d197ea57a33"/>
            </result>
            <result>
                    <!--Observation/observationAssay2-->
               <reference value="Observation/1e20aed7-7626-1664-8d96-235f860d9a2c"/>
            </result>
            <result>
                    <!--Observation/observationAssay3-->
               <reference value="Observation/ec6d7e30-4d70-491b-0669-a613eedd3c60"/>
            </result>
            <result>
                    <!--Observation/observationDegradation-imp1-->
               <reference value="Observation/ab7997fa-7b46-1175-3f01-6f6997f7878a"/>
            </result>
            <result>
                    <!--Observation/observationDegradation-imp1-2-->
               <reference value="Observation/4052f28b-64a2-392d-35e4-ec8e912434d2"/>
            </result>
            <result>
                    <!--Observation/observationDegradation-imp1-3-->
               <reference value="Observation/34ebc51d-8105-0589-3c8d-e7aa6bd0a06c"/>
            </result>
            <result>
                    <!--Observation/observationDegradation-imp2-->
               <reference value="Observation/2940bf11-05bf-6ce2-3c64-457d0d1f9913"/>
            </result>
            <result>
                    <!--Observation/observationDegradation-imp2-2-->
               <reference value="Observation/332b1e76-6f70-2b4e-5d0c-f22a0e042d3e"/>
            </result>
            <result>
                    <!--Observation/observationDegradation-imp2-3-->
               <reference value="Observation/f0a13a3b-2e8b-594f-6874-6050511e4c57"/>
            </result>
            <result>
                    <!--Observation/observationDegradation-imp3-->
               <reference value="Observation/7fe7ccd7-6449-0186-2282-3eeb4cf6a795"/>
            </result>
            <result>
                    <!--Observation/observationDegradation-imp3-2-->
               <reference value="Observation/be016630-8754-7414-9014-21e020ad66c6"/>
            </result>
            <result>
                    <!--Observation/observationDegradation-imp3-3-->
               <reference value="Observation/92568f68-78f3-908c-6935-ff5f3d574dd6"/>
            </result>
            <result>
                    <!--Observation/observationDegradation-imp-unspecified-->
               <reference value="Observation/a0ba0f6d-8ec0-846a-a70d-f6bca6d01a12"/>
            </result>
            <result>
                    <!--Observation/observationDegradation-imp-unspecified-2-->
               <reference value="Observation/d8533dcb-03f8-5997-6ccf-4f9b6f7a5745"/>
            </result>
            <result>
                    <!--Observation/observationDegradation-imp-unspecified-3-->
               <reference value="Observation/7cec19a2-34a7-6b80-3d60-083b2cc64fcb"/>
            </result>
            <result>
                    <!--Observation/observationDegradation-imp-total-->
               <reference value="Observation/27aa47fd-7964-4f96-6495-b2bec7f160e7"/>
            </result>
            <result>
                    <!--Observation/observationDegradation-imp-total-2-->
               <reference value="Observation/6a78bcde-4781-226c-946e-a4b6915c1899"/>
            </result>
            <result>
                    <!--Observation/observationDegradation-imp-total-3-->
               <reference value="Observation/f9f11088-7527-947c-3d3f-e71b32e13c78"/>
            </result>
            <result>
                    <!--Observation/observationWater-->
               <reference value="Observation/66c2f585-678e-78b8-2235-1a3b37bd6e46"/>
            </result>
            <result>
                    <!--Observation/observationWater2-->
               <reference value="Observation/f8232d25-023d-679f-9c58-a6dc234b7a28"/>
            </result>
            <result>
                    <!--Observation/observationWater3-->
               <reference value="Observation/368b82be-75dd-1d97-3dbc-a7eed9869daa"/>
            </result>
            <result><!--Observation/fillingTAMC1-->
               <reference value="Observation/44aa47fd-8964-4f96-6495-b2bec7f160e7"/>
            </result>
            <result><!--Observation/fillingConclusion-nosubject-->
               <reference value="Observation/45aa47fd-8964-4f96-6495-b2bec7f160e7"/>
            </result>
            <result><!--Observation/lyophilizationConclusion-nosubject-->
               <reference value="Observation/45ab47fd-8964-4f96-6495-b2bec7f160e7"/>
            </result>
            <result><!--Observation/lyophilizerNumber1-->
               <reference value="Observation/37aa47fd-8964-4f96-6495-b2bec7f160e7"/>
            </result>
            <result><!--Observation/lyophilizerNumber2-->
               <reference value="Observation/38aa47fd-8964-4f96-6495-b2bec7f160e7"/>
            </result>
            <result><!--Observation/lyophilizerNumber3-->
               <reference value="Observation/38aa48fd-8964-4f96-6495-b2bec7f160e7"/>
            </result>
            <result><!--Observation/lyophilizationAssay1-->
               <reference value="Observation/37aa47fd-7964-4f96-6495-b2bec7f160e7"/>
            </result>
            <result><!--Observation/lyophilizationAssay2-->
               <reference value="Observation/47aa47fd-7964-4f96-6495-b2bec7f160e7"/>
            </result>
            <result><!--Observation/lyophilizationAssay3-->
               <reference value="Observation/47aa47fd-7964-4f96-6495-b2bec7f160e8"/>
            </result>
            <result><!--Observation/lyophilizerWaterHomogeneity1-->
               <reference value="Observation/47aa47fd-8964-4f96-6495-b2bec7f160e7"/>
            </result>
            <result><!--Observation/lyophilizerAssayHomogeneity1-->
               <reference value="Observation/47aa47fd-8964-5f96-6495-b2bec7f160e7"/>
            </result>
            <conclusion value="The samples have been assessed and the conclusion is..."/>
         </DiagnosticReport>
      </resource>
   </entry>
   <entry>
      <fullUrl value="urn:uuid:f0a04328-905c-4ec5-372e-4d6cfef18629"/>
      <resource>
         <Observation>
                <!--observationIdentification-->
            <id value="f0a04328-905c-4ec5-372e-4d6cfef18629"/>
            <instantiatesReference>
                    <!--ObservationDefinition/Identification-->
               <reference value="ObservationDefinition/3b0e878e-4bc9-8864-862f-e28b21233e8d"/>
            </instantiatesReference>
            <status value="final"/>
            <code>
               <coding>
                  <system value="http://dummy.loinc.org"/>
                  <code value="XXX"/>
                  <display value="Identification"/>
               </coding>
               <text value="Identification"/>
            </code>
            <subject>
                    <!--Medication/medication-batch-information-pq-ex2-->
               <reference value="Medication/339b69fd-4ab1-a1e9-9ea5-1972ba2f6b51"/>
            </subject>
            <effectiveDateTime value="2023-01-01T12:00:00Z"/>
            <performer>
					<!--Organization/378fbe5f-5926-3a5c-4c64-5428df877b08-->
               <reference value="Organization/378fbe5f-5926-3a5c-4c64-5428df877b08"/>
            </performer>
            <valueCodeableConcept>
               <text value="Complies"/>
            </valueCodeableConcept>
         </Observation>
      </resource>
   </entry>
   <entry>
      <fullUrl value="urn:uuid:5e5a5e67-7fc6-0064-1be9-5d9d14d887e5"/>
      <resource>
         <Observation>
                <!--observationIdentification2-->
            <id value="5e5a5e67-7fc6-0064-1be9-5d9d14d887e5"/>
            <instantiatesReference>
                    <!--ObservationDefinition/Identification-->
               <reference value="ObservationDefinition/3b0e878e-4bc9-8864-862f-e28b21233e8d"/>
            </instantiatesReference>
            <status value="final"/>
            <code>
               <coding>
                  <system value="http://dummy.loinc.org"/>
                  <code value="XXX"/>
                  <display value="Identification"/>
               </coding>
               <text value="Identification"/>
            </code>
            <subject>
                    <!--Medication/medication-actual-batch-2-->
               <reference value="Medication/a9dfda53-734b-045f-7ae4-94a6281d53bc"/>
            </subject>
            <effectiveDateTime value="2023-01-01T12:00:00Z"/>
            <performer>
					<!--Organization/378fbe5f-5926-3a5c-4c64-5428df877b08-->
               <reference value="Organization/378fbe5f-5926-3a5c-4c64-5428df877b08"/>
            </performer>
            <valueCodeableConcept>
               <text value="Does not comply"/>
            </valueCodeableConcept>
         </Observation>
      </resource>
   </entry>
   <entry>
      <fullUrl value="urn:uuid:cfde6776-673c-72e2-68c4-07b77cd85b74"/>
      <resource>
         <Observation>
                <!--observationIdentification3-->
            <id value="cfde6776-673c-72e2-68c4-07b77cd85b74"/>
            <instantiatesReference>
                    <!--ObservationDefinition/Identification-->
               <reference value="ObservationDefinition/3b0e878e-4bc9-8864-862f-e28b21233e8d"/>
            </instantiatesReference>
            <status value="final"/>
            <code>
               <coding>
                  <system value="http://dummy.loinc.org"/>
                  <code value="XXX"/>
                  <display value="Identification"/>
               </coding>
               <text value="Identification"/>
            </code>
            <subject>
                    <!--Medication/medication-actual-batch-3-->
               <reference value="Medication/c6f5fadd-62e6-3a01-93d9-b3b182f67d06"/>
            </subject>
            <effectiveDateTime value="2023-01-01T12:00:00Z"/>
            <performer>
					<!--Organization/378fbe5f-5926-3a5c-4c64-5428df877b08-->
               <reference value="Organization/378fbe5f-5926-3a5c-4c64-5428df877b08"/>
            </performer>
            <valueCodeableConcept>
               <text value="Complies"/>
            </valueCodeableConcept>
         </Observation>
      </resource>
   </entry>
   <entry>
      <fullUrl value="urn:uuid:9c56948a-2a39-6609-1c01-4d197ea57a33"/>
      <resource>
         <Observation>
                <!--compoundingpHPre1-->
            <id value="9c56948a-2a39-6609-1c01-4d197ea57a33"/>
            <instantiatesReference>
                    <!--ObservationDefinition/compoundingpHPre-->
               <reference value="ObservationDefinition/fc17b5d5-9fe1-91c2-2d06-47cb5b295e72"/>
            </instantiatesReference>
            <status value="final"/>
            <code>
               <coding>
                  <system value="http://dummy.loinc.org"/>
                  <code value="XXX"/>
                  <display value="pH (adjustment of pre-clarification bulk solution)"/>
               </coding>
               <text value="pH (adjustment of pre-clarification bulk solution)"/>
            </code>
            <subject>
                    <!--Medication/medication-batch-information-pq-ex2-->
               <reference value="Medication/339b69fd-4ab1-a1e9-9ea5-1972ba2f6b51"/>
            </subject>
            <effectiveDateTime value="2023-01-01T12:00:00Z"/>
            <performer>
					<!--Organization/378fbe5f-5926-3a5c-4c64-5428df877b08-->
               <reference value="Organization/378fbe5f-5926-3a5c-4c64-5428df877b08"/>
            </performer>
            <valueQuantity>
               <value value="6.91"/>
               <unit value="pH"/>
               <system value="http://unitsofmeasure.org"/>
               <code value="pH"/>
            </valueQuantity>
         </Observation>
      </resource>
   </entry>
   <entry>
      <fullUrl value="urn:uuid:9c56948a-3a39-6609-1c01-4d197ea57a33"/>
      <resource>
         <Observation>
                <!--compoundingpHPre2-->
            <id value="9c56948a-3a39-6609-1c01-4d197ea57a33"/>
            <instantiatesReference>
                    <!--ObservationDefinition/compoundingpHPre-->
               <reference value="ObservationDefinition/fc17b5d5-9fe1-91c2-2d06-47cb5b295e72"/>
            </instantiatesReference>
            <status value="final"/>
            <code>
               <coding>
                  <system value="http://dummy.loinc.org"/>
                  <code value="XXX"/>
                  <display value="pH (adjustment of pre-clarification bulk solution)"/>
               </coding>
               <text value="pH (adjustment of pre-clarification bulk solution)"/>
            </code>
            <subject>
                    <!--Medication/medication-actual-batch-2-->
               <reference value="Medication/a9dfda53-734b-045f-7ae4-94a6281d53bc"/>
            </subject>
            <effectiveDateTime value="2023-01-01T12:00:00Z"/>
            <performer>
					<!--Organization/378fbe5f-5926-3a5c-4c64-5428df877b08-->
               <reference value="Organization/378fbe5f-5926-3a5c-4c64-5428df877b08"/>
            </performer>
            <valueQuantity>
               <value value="6.92"/>
               <unit value="pH"/>
               <system value="http://unitsofmeasure.org"/>
               <code value="pH"/>
            </valueQuantity>
         </Observation>
      </resource>
   </entry>
   <entry>
      <fullUrl value="urn:uuid:9c56948a-4a39-6609-1c01-4d197ea57a33"/>
      <resource>
         <Observation>
                <!--compoundingpHPre3-->
            <id value="9c56948a-4a39-6609-1c01-4d197ea57a33"/>
            <instantiatesReference>
                    <!--ObservationDefinition/compoundingpHPre-->
               <reference value="ObservationDefinition/fc17b5d5-9fe1-91c2-2d06-47cb5b295e72"/>
            </instantiatesReference>
            <status value="final"/>
            <code>
               <coding>
                  <system value="http://dummy.loinc.org"/>
                  <code value="XXX"/>
                  <display value="pH (adjustment of pre-clarification bulk solution)"/>
               </coding>
               <text value="pH (adjustment of pre-clarification bulk solution)"/>
            </code>
            <subject>
                    <!--Medication/medication-actual-batch-3-->
               <reference value="Medication/c6f5fadd-62e6-3a01-93d9-b3b182f67d06"/>
            </subject>
            <effectiveDateTime value="2023-01-01T12:00:00Z"/>
            <performer>
					<!--Organization/378fbe5f-5926-3a5c-4c64-5428df877b08-->
               <reference value="Organization/378fbe5f-5926-3a5c-4c64-5428df877b08"/>
            </performer>
            <valueQuantity>
               <value value="6.93"/>
               <unit value="pH"/>
               <system value="http://unitsofmeasure.org"/>
               <code value="pH"/>
            </valueQuantity>
         </Observation>
      </resource>
   </entry>
   <entry>
      <fullUrl value="urn:uuid:9c56948a-3a49-6609-1c01-4d197ea57a33"/>
      <resource>
         <Observation>
                <!--compoundingpHPost1-->
            <id value="9c56948a-3a49-6609-1c01-4d197ea57a33"/>
            <instantiatesReference>
                    <!--ObservationDefinition/compoundingpHPost-->
               <reference value="ObservationDefinition/fc17b5d5-9fe1-91c2-2d06-47cb5b295e73"/>
            </instantiatesReference>
            <status value="final"/>
            <code>
               <coding>
                  <system value="http://dummy.loinc.org"/>
                  <code value="XXX"/>
                  <display value="pH (adjustment of pre-clarification bulk solution)"/>
               </coding>
               <text value="pH (adjustment of pre-clarification bulk solution)"/>
            </code>
            <subject>
                    <!--Medication/medication-batch-information-pq-ex2-->
               <reference value="Medication/339b69fd-4ab1-a1e9-9ea5-1972ba2f6b51"/>
            </subject>
            <effectiveDateTime value="2023-01-01T12:00:00Z"/>
            <performer>
					<!--Organization/378fbe5f-5926-3a5c-4c64-5428df877b08-->
               <reference value="Organization/378fbe5f-5926-3a5c-4c64-5428df877b08"/>
            </performer>
            <valueQuantity>
               <value value="7.01"/>
               <unit value="pH"/>
               <system value="http://unitsofmeasure.org"/>
               <code value="pH"/>
            </valueQuantity>
         </Observation>
      </resource>
   </entry>
   <entry>
      <fullUrl value="urn:uuid:9c56958a-4a39-6609-1c01-4d197ea57a33"/>
      <resource>
         <Observation>
                <!--compoundingpHPost2-->
            <id value="9c56958a-4a39-6609-1c01-4d197ea57a33"/>
            <instantiatesReference>
                    <!--ObservationDefinition/compoundingpHPost-->
               <reference value="ObservationDefinition/fc17b5d5-9fe1-91c2-2d06-47cb5b295e73"/>
            </instantiatesReference>
            <status value="final"/>
            <code>
               <coding>
                  <system value="http://dummy.loinc.org"/>
                  <code value="XXX"/>
                  <display value="pH (adjustment of pre-clarification bulk solution)"/>
               </coding>
               <text value="pH (adjustment of pre-clarification bulk solution)"/>
            </code>
            <subject>
                    <!--Medication/medication-actual-batch-2-->
               <reference value="Medication/a9dfda53-734b-045f-7ae4-94a6281d53bc"/>
            </subject>
            <effectiveDateTime value="2023-01-01T12:00:00Z"/>
            <performer>
					<!--Organization/378fbe5f-5926-3a5c-4c64-5428df877b08-->
               <reference value="Organization/378fbe5f-5926-3a5c-4c64-5428df877b08"/>
            </performer>
            <valueQuantity>
               <value value="7.02"/>
               <unit value="pH"/>
               <system value="http://unitsofmeasure.org"/>
               <code value="pH"/>
            </valueQuantity>
         </Observation>
      </resource>
   </entry>
   <entry>
      <fullUrl value="urn:uuid:9c56948a-5a39-6609-1c01-4d197ea57a33"/>
      <resource>
         <Observation>
                <!--compoundingpHPost3-->
            <id value="9c56948a-5a39-6609-1c01-4d197ea57a33"/>
            <instantiatesReference>
                    <!--ObservationDefinition/compoundingpHPost-->
               <reference value="ObservationDefinition/fc17b5d5-9fe1-91c2-2d06-47cb5b295e73"/>
            </instantiatesReference>
            <status value="final"/>
            <code>
               <coding>
                  <system value="http://dummy.loinc.org"/>
                  <code value="XXX"/>
                  <display value="pH (adjustment of pre-clarification bulk solution)"/>
               </coding>
               <text value="pH (adjustment of pre-clarification bulk solution)"/>
            </code>
            <subject>
                    <!--Medication/medication-actual-batch-3-->
               <reference value="Medication/c6f5fadd-62e6-3a01-93d9-b3b182f67d06"/>
            </subject>
            <effectiveDateTime value="2023-01-01T12:00:00Z"/>
            <performer>
					<!--Organization/378fbe5f-5926-3a5c-4c64-5428df877b08-->
               <reference value="Organization/378fbe5f-5926-3a5c-4c64-5428df877b08"/>
            </performer>
            <valueQuantity>
               <value value="6.93"/>
               <unit value="pH"/>
               <system value="http://unitsofmeasure.org"/>
               <code value="pH"/>
            </valueQuantity>
         </Observation>
      </resource>
   </entry>
   <entry>
      <fullUrl value="urn:uuid:9c56948a-2a39-6609-1c01-4d297ea57a33"/>
      <resource>
         <Observation>
                <!--compoundingAssayPre1-->
            <id value="9c56948a-2a39-6609-1c01-4d297ea57a33"/>
            <instantiatesReference>
                    <!--ObservationDefinition/compoundingAssayPre-->
               <reference value="ObservationDefinition/fd17b5d5-9fe1-91c2-2d06-47cb5b295e72"/>
            </instantiatesReference>
            <status value="final"/>
            <code>
               <coding>
                  <system value="http://dummy.loinc.org"/>
                  <code value="XXX"/>
                  <display value="Assay (pre-clarification filtration) (mg/mL)"/>
               </coding>
               <text value="Assay (pre-clarification filtration) (mg/mL)"/>
            </code>
            <subject>
                    <!--Medication/medication-batch-information-pq-ex2-->
               <reference value="Medication/339b69fd-4ab1-a1e9-9ea5-1972ba2f6b51"/>
            </subject>
            <effectiveDateTime value="2023-01-01T12:00:00Z"/>
            <performer>
					<!--Organization/378fbe5f-5926-3a5c-4c64-5428df877b08-->
               <reference value="Organization/378fbe5f-5926-3a5c-4c64-5428df877b08"/>
            </performer>
            <valueQuantity>
               <value value="21.1"/>
               <unit value="mg/mL"/>
               <system value="http://unitsofmeasure.org"/>
               <code value="mg/mL"/>
            </valueQuantity>
         </Observation>
      </resource>
   </entry>
   <entry>
      <fullUrl value="urn:uuid:9c56948a-3a39-6619-1c01-4d197ea57a33"/>
      <resource>
         <Observation>
                <!--compoundingAssayPre2-->
            <id value="9c56948a-3a39-6619-1c01-4d197ea57a33"/>
            <instantiatesReference>
                    <!--ObservationDefinition/compoundingAssayPre-->
               <reference value="ObservationDefinition/fd17b5d5-9fe1-91c2-2d06-47cb5b295e72"/>
            </instantiatesReference>
            <status value="final"/>
            <code>
               <coding>
                  <system value="http://dummy.loinc.org"/>
                  <code value="XXX"/>
                  <display value="Assay (pre-clarification filtration) (mg/mL)"/>
               </coding>
               <text value="Assay (pre-clarification filtration) (mg/mL)"/>
            </code>
            <subject>
                    <!--Medication/medication-actual-batch-2-->
               <reference value="Medication/a9dfda53-734b-045f-7ae4-94a6281d53bc"/>
            </subject>
            <effectiveDateTime value="2023-01-01T12:00:00Z"/>
            <performer>
					<!--Organization/378fbe5f-5926-3a5c-4c64-5428df877b08-->
               <reference value="Organization/378fbe5f-5926-3a5c-4c64-5428df877b08"/>
            </performer>
            <valueQuantity>
               <value value="21.2"/>
               <unit value="mg/mL"/>
               <system value="http://unitsofmeasure.org"/>
               <code value="mg/mL"/>
            </valueQuantity>
         </Observation>
      </resource>
   </entry>
   <entry>
      <fullUrl value="urn:uuid:9c56948a-4a39-6619-1c01-4d197ea57a33"/>
      <resource>
         <Observation>
                <!--compoundingAssayPre3-->
            <id value="9c56948a-4a39-6619-1c01-4d197ea57a33"/>
            <instantiatesReference>
                    <!--ObservationDefinition/compoundingAssayPre-->
               <reference value="ObservationDefinition/fd17b5d5-9fe1-91c2-2d06-47cb5b295e72"/>
            </instantiatesReference>
            <status value="final"/>
            <code>
               <coding>
                  <system value="http://dummy.loinc.org"/>
                  <code value="XXX"/>
                  <display value="Assay (pre-clarification filtration) (mg/mL)"/>
               </coding>
               <text value="Assay (pre-clarification filtration) (mg/mL)"/>
            </code>
            <subject>
                    <!--Medication/medication-actual-batch-3-->
               <reference value="Medication/c6f5fadd-62e6-3a01-93d9-b3b182f67d06"/>
            </subject>
            <effectiveDateTime value="2023-01-01T12:00:00Z"/>
            <performer>
					<!--Organization/378fbe5f-5926-3a5c-4c64-5428df877b08-->
               <reference value="Organization/378fbe5f-5926-3a5c-4c64-5428df877b08"/>
            </performer>
            <valueQuantity>
               <value value="21.3"/>
               <unit value="mg/mL"/>
               <system value="http://unitsofmeasure.org"/>
               <code value="mg/mL"/>
            </valueQuantity>
         </Observation>
      </resource>
   </entry>
   <entry>
      <fullUrl value="urn:uuid:9c56948a-3a49-6619-1c01-4d197ea57a33"/>
      <resource>
         <Observation>
                <!--compoundingAssayPost1-->
            <id value="9c56948a-3a49-6619-1c01-4d197ea57a33"/>
            <instantiatesReference>
                    <!--ObservationDefinition/compoundingAssayPost-->
               <reference value="ObservationDefinition/fd17b5d5-9fe1-91c2-2d06-47cb5b295e73"/>
            </instantiatesReference>
            <status value="final"/>
            <code>
               <coding>
                  <system value="http://dummy.loinc.org"/>
                  <code value="XXX"/>
                  <display value="Assay (Post dilution bulk solution) (mg/mL)"/>
               </coding>
               <text value="Assay (Post dilution bulk solution) (mg/mL)"/>
            </code>
            <subject>
                    <!--Medication/medication-batch-information-pq-ex2-->
               <reference value="Medication/339b69fd-4ab1-a1e9-9ea5-1972ba2f6b51"/>
            </subject>
            <effectiveDateTime value="2023-01-01T12:00:00Z"/>
            <performer>
					<!--Organization/378fbe5f-5926-3a5c-4c64-5428df877b08-->
               <reference value="Organization/378fbe5f-5926-3a5c-4c64-5428df877b08"/>
            </performer>
            <valueQuantity>
               <value value="20.1"/>
               <unit value="mg/mL"/>
               <system value="http://unitsofmeasure.org"/>
               <code value="mg/mL"/>
            </valueQuantity>
         </Observation>
      </resource>
   </entry>
   <entry>
      <fullUrl value="urn:uuid:9c56958a-4a39-6619-1c01-4d197ea57a33"/>
      <resource>
         <Observation>
                <!--compoundingAssayPost2-->
            <id value="9c56958a-4a39-6619-1c01-4d197ea57a33"/>
            <instantiatesReference>
                    <!--ObservationDefinition/compoundingAssayPost-->
               <reference value="ObservationDefinition/fd17b5d5-9fe1-91c2-2d06-47cb5b295e73"/>
            </instantiatesReference>
            <status value="final"/>
            <code>
               <coding>
                  <system value="http://dummy.loinc.org"/>
                  <code value="XXX"/>
                  <display value="Assay (Post dilution bulk solution) (mg/mL)"/>
               </coding>
               <text value="Assay (Post dilution bulk solution) (mg/mL)"/>
            </code>
            <subject>
                    <!--Medication/medication-actual-batch-2-->
               <reference value="Medication/a9dfda53-734b-045f-7ae4-94a6281d53bc"/>
            </subject>
            <effectiveDateTime value="2023-01-01T12:00:00Z"/>
            <performer>
					<!--Organization/378fbe5f-5926-3a5c-4c64-5428df877b08-->
               <reference value="Organization/378fbe5f-5926-3a5c-4c64-5428df877b08"/>
            </performer>
            <valueQuantity>
               <value value="20.2"/>
               <unit value="mg/mL"/>
               <system value="http://unitsofmeasure.org"/>
               <code value="mg/mL"/>
            </valueQuantity>
         </Observation>
      </resource>
   </entry>
   <entry>
      <fullUrl value="urn:uuid:9c56948a-5a39-6709-1c01-4d197ea57a33"/>
      <resource>
         <Observation>
                <!--compoundingAssayPost3-->
            <id value="9c56948a-5a39-6709-1c01-4d197ea57a33"/>
            <instantiatesReference>
                    <!--ObservationDefinition/compoundingAssayPost-->
               <reference value="ObservationDefinition/fd17b5d5-9fe1-91c2-2d06-47cb5b295e73"/>
            </instantiatesReference>
            <status value="final"/>
            <code>
               <coding>
                  <system value="http://dummy.loinc.org"/>
                  <code value="XXX"/>
                  <display value="Assay (Post dilution bulk solution) (mg/mL)"/>
               </coding>
               <text value="Assay (Post dilution bulk solution) (mg/mL)"/>
            </code>
            <subject>
                    <!--Medication/medication-actual-batch-3-->
               <reference value="Medication/c6f5fadd-62e6-3a01-93d9-b3b182f67d06"/>
            </subject>
            <effectiveDateTime value="2023-01-01T12:00:00Z"/>
            <performer>
					<!--Organization/378fbe5f-5926-3a5c-4c64-5428df877b08-->
               <reference value="Organization/378fbe5f-5926-3a5c-4c64-5428df877b08"/>
            </performer>
            <valueQuantity>
               <value value="20.3"/>
               <unit value="mg/mL"/>
               <system value="http://unitsofmeasure.org"/>
               <code value="mg/mL"/>
            </valueQuantity>
         </Observation>
      </resource>
   </entry>
   <entry>
      <fullUrl value="urn:uuid:9c56948a-1a39-6609-1c01-4d197ea57a33"/>
      <resource>
         <Observation>
                <!--observationAssay-->
            <id value="9c56948a-1a39-6609-1c01-4d197ea57a33"/>
            <instantiatesReference>
                    <!--ObservationDefinition/Assay-->
               <reference value="ObservationDefinition/12e7e672-40a6-4036-3c1f-b8ba6a7d045e"/>
            </instantiatesReference>
            <status value="final"/>
            <code>
               <coding>
                  <system value="http://dummy.loinc.org"/>
                  <code value="XXX"/>
                  <display value="Assay"/>
               </coding>
               <text value="Assay"/>
            </code>
            <subject>
                    <!--Medication/medication-batch-information-pq-ex2-->
               <reference value="Medication/339b69fd-4ab1-a1e9-9ea5-1972ba2f6b51"/>
            </subject>
            <effectiveDateTime value="2023-01-01T12:00:00Z"/>
            <performer>
					<!--Organization/378fbe5f-5926-3a5c-4c64-5428df877b08-->
               <reference value="Organization/378fbe5f-5926-3a5c-4c64-5428df877b08"/>
            </performer>
            <valueQuantity>
               <value value="103"/>
               <unit value="%"/>
               <system value="http://unitsofmeasure.org"/>
               <code value="%"/>
            </valueQuantity>
         </Observation>
      </resource>
   </entry>
   <entry>
      <fullUrl value="urn:uuid:1e20aed7-7626-1664-8d96-235f860d9a2c"/>
      <resource>
         <Observation>
                <!--observationAssay2-->
            <id value="1e20aed7-7626-1664-8d96-235f860d9a2c"/>
            <instantiatesReference>
                    <!--ObservationDefinition/Assay-->
               <reference value="ObservationDefinition/12e7e672-40a6-4036-3c1f-b8ba6a7d045e"/>
            </instantiatesReference>
            <status value="final"/>
            <code>
               <coding>
                  <system value="http://dummy.loinc.org"/>
                  <code value="XXX"/>
                  <display value="Assay"/>
               </coding>
               <text value="Assay"/>
            </code>
            <subject>
                    <!--Medication/medication-actual-batch-2-->
               <reference value="Medication/a9dfda53-734b-045f-7ae4-94a6281d53bc"/>
            </subject>
            <effectiveDateTime value="2023-01-01T12:00:00Z"/>
            <performer>
					<!--Organization/378fbe5f-5926-3a5c-4c64-5428df877b08-->
               <reference value="Organization/378fbe5f-5926-3a5c-4c64-5428df877b08"/>
            </performer>
            <valueQuantity>
               <value value="102"/>
               <unit value="%"/>
               <system value="http://unitsofmeasure.org"/>
               <code value="%"/>
            </valueQuantity>
         </Observation>
      </resource>
   </entry>
   <entry>
      <fullUrl value="urn:uuid:ec6d7e30-4d70-491b-0669-a613eedd3c60"/>
      <resource>
         <Observation>
                <!--observationAssay3-->
            <id value="ec6d7e30-4d70-491b-0669-a613eedd3c60"/>
            <instantiatesReference>
                    <!--ObservationDefinition/Assay-->
               <reference value="ObservationDefinition/12e7e672-40a6-4036-3c1f-b8ba6a7d045e"/>
            </instantiatesReference>
            <status value="final"/>
            <code>
               <coding>
                  <system value="http://dummy.loinc.org"/>
                  <code value="XXX"/>
                  <display value="Assay"/>
               </coding>
               <text value="Assay"/>
            </code>
            <subject>
                    <!--Medication/medication-actual-batch-3-->
               <reference value="Medication/c6f5fadd-62e6-3a01-93d9-b3b182f67d06"/>
            </subject>
            <effectiveDateTime value="2023-01-01T12:00:00Z"/>
            <performer>
					<!--Organization/378fbe5f-5926-3a5c-4c64-5428df877b08-->
               <reference value="Organization/378fbe5f-5926-3a5c-4c64-5428df877b08"/>
            </performer>
            <valueQuantity>
               <value value="101"/>
               <unit value="%"/>
               <system value="http://unitsofmeasure.org"/>
               <code value="%"/>
            </valueQuantity>
         </Observation>
      </resource>
   </entry>
   <entry>
      <fullUrl value="urn:uuid:ab7997fa-7b46-1175-3f01-6f6997f7878a"/>
      <resource>
         <Observation>
                <!--observationDegradation-imp1-->
            <id value="ab7997fa-7b46-1175-3f01-6f6997f7878a"/>
            <instantiatesReference>
                    <!--ObservationDefinition/Degradation-->
               <reference value="ObservationDefinition/8bdea820-4197-7c7d-0990-7be06bf78aaf"/>
            </instantiatesReference>
            <status value="final"/>
            <code>
               <coding>
                  <system value="http://dummy.loinc.org"/>
                  <code value="DGP"/>
                  <display value="Degradation Products"/>
               </coding>
               <text value="Degradation Products"/>
            </code>
            <subject>
                    <!--Medication/medication-batch-information-pq-ex2-->
               <reference value="Medication/339b69fd-4ab1-a1e9-9ea5-1972ba2f6b51"/>
            </subject>
            <effectiveDateTime value="2023-01-01T12:00:00Z"/>
            <performer>
					<!--Organization/378fbe5f-5926-3a5c-4c64-5428df877b08-->
               <reference value="Organization/378fbe5f-5926-3a5c-4c64-5428df877b08"/>
            </performer>
            <valueQuantity>
               <value value="0.1"/>
               <unit value="% w/w"/>
               <system value="http://unitsofmeasure.org"/>
               <code value="%"/>
            </valueQuantity>
            <component>
               <code>
                  <coding>
                     <system value="http://dummy.loinc.org"/>
                     <code value="IMP"/>
                     <display value="Impurity"/>
                  </coding>
               </code>
               <valueCodeableConcept>
                        <!-- could have the code of an impurity substance, or could have an extension to point to it as a resource -->
                  <text value="Impurity 1"/>
               </valueCodeableConcept>
            </component>
         </Observation>
      </resource>
   </entry>
   <entry>
      <fullUrl value="urn:uuid:4052f28b-64a2-392d-35e4-ec8e912434d2"/>
      <resource>
         <Observation>
                <!--observationDegradation-imp1-2-->
            <id value="4052f28b-64a2-392d-35e4-ec8e912434d2"/>
            <instantiatesReference>
                    <!--ObservationDefinition/Degradation-->
               <reference value="ObservationDefinition/8bdea820-4197-7c7d-0990-7be06bf78aaf"/>
            </instantiatesReference>
            <status value="final"/>
            <code>
               <coding>
                  <system value="http://dummy.loinc.org"/>
                  <code value="DGP"/>
                  <display value="Degradation Products"/>
               </coding>
               <text value="Degradation Products"/>
            </code>
            <subject>
                    <!--Medication/medication-actual-batch-2-->
               <reference value="Medication/a9dfda53-734b-045f-7ae4-94a6281d53bc"/>
            </subject>
            <effectiveDateTime value="2023-01-01T12:00:00Z"/>
            <performer>
					<!--Organization/378fbe5f-5926-3a5c-4c64-5428df877b08-->
               <reference value="Organization/378fbe5f-5926-3a5c-4c64-5428df877b08"/>
            </performer>
            <valueQuantity>
               <value value="0.2"/>
               <unit value="% w/w"/>
               <system value="http://unitsofmeasure.org"/>
               <code value="%"/>
            </valueQuantity>
            <component>
               <code>
                  <coding>
                     <system value="http://dummy.loinc.org"/>
                     <code value="IMP"/>
                     <display value="Impurity"/>
                  </coding>
               </code>
               <valueCodeableConcept>
                        <!-- could have the code of an impurity substance, or could have an extension to point to it as a resource -->
                  <text value="Impurity 1"/>
               </valueCodeableConcept>
            </component>
         </Observation>
      </resource>
   </entry>
   <entry>
      <fullUrl value="urn:uuid:34ebc51d-8105-0589-3c8d-e7aa6bd0a06c"/>
      <resource>
         <Observation>
                <!--observationDegradation-imp1-3-->
            <id value="34ebc51d-8105-0589-3c8d-e7aa6bd0a06c"/>
            <instantiatesReference>
                    <!--ObservationDefinition/Degradation-->
               <reference value="ObservationDefinition/8bdea820-4197-7c7d-0990-7be06bf78aaf"/>
            </instantiatesReference>
            <status value="final"/>
            <code>
               <coding>
                  <system value="http://dummy.loinc.org"/>
                  <code value="DGP"/>
                  <display value="Degradation Products"/>
               </coding>
               <text value="Degradation Products"/>
            </code>
            <subject>
                    <!--Medication/medication-actual-batch-3-->
               <reference value="Medication/c6f5fadd-62e6-3a01-93d9-b3b182f67d06"/>
            </subject>
            <effectiveDateTime value="2023-01-01T12:00:00Z"/>
            <performer>
					<!--Organization/378fbe5f-5926-3a5c-4c64-5428df877b08-->
               <reference value="Organization/378fbe5f-5926-3a5c-4c64-5428df877b08"/>
            </performer>
            <valueQuantity>
               <value value="0.2"/>
               <unit value="% w/w"/>
               <system value="http://unitsofmeasure.org"/>
               <code value="%"/>
            </valueQuantity>
            <component>
               <code>
                  <coding>
                     <system value="http://dummy.loinc.org"/>
                     <code value="IMP"/>
                     <display value="Impurity"/>
                  </coding>
               </code>
               <valueCodeableConcept>
                        <!-- could have the code of an impurity substance, or could have an extension to point to it as a resource -->
                  <text value="Impurity 1"/>
               </valueCodeableConcept>
            </component>
         </Observation>
      </resource>
   </entry>
   <entry>
      <fullUrl value="urn:uuid:2940bf11-05bf-6ce2-3c64-457d0d1f9913"/>
      <resource>
         <Observation>
                <!--observationDegradation-imp2-->
            <id value="2940bf11-05bf-6ce2-3c64-457d0d1f9913"/>
            <instantiatesReference>
                    <!--ObservationDefinition/Degradation-->
               <reference value="ObservationDefinition/8bdea820-4197-7c7d-0990-7be06bf78aaf"/>
            </instantiatesReference>
            <status value="final"/>
            <code>
               <coding>
                  <system value="http://dummy.loinc.org"/>
                  <code value="DGP"/>
                  <display value="Degradation Products"/>
               </coding>
               <text value="Degradation Products"/>
            </code>
            <subject>
                    <!--Medication/medication-batch-information-pq-ex2-->
               <reference value="Medication/339b69fd-4ab1-a1e9-9ea5-1972ba2f6b51"/>
            </subject>
            <effectiveDateTime value="2023-01-01T12:00:00Z"/>
            <performer>
					<!--Organization/378fbe5f-5926-3a5c-4c64-5428df877b08-->
               <reference value="Organization/378fbe5f-5926-3a5c-4c64-5428df877b08"/>
            </performer>
            <valueQuantity>
               <value value="0.2"/>
               <unit value="% w/w"/>
               <system value="http://unitsofmeasure.org"/>
               <code value="%"/>
            </valueQuantity>
            <component>
               <code>
                  <coding>
                     <system value="http://dummy.loinc.org"/>
                     <code value="IMP"/>
                     <display value="Impurity"/>
                  </coding>
               </code>
               <valueCodeableConcept>
                        <!-- could have the code of an impurity substance, or could have an extension to point to it as a resource -->
                  <text value="Impurity 2"/>
               </valueCodeableConcept>
            </component>
         </Observation>
      </resource>
   </entry>
   <entry>
      <fullUrl value="urn:uuid:332b1e76-6f70-2b4e-5d0c-f22a0e042d3e"/>
      <resource>
         <Observation>
                <!--observationDegradation-imp2-2-->
            <id value="332b1e76-6f70-2b4e-5d0c-f22a0e042d3e"/>
            <instantiatesReference>
                    <!--ObservationDefinition/Degradation-->
               <reference value="ObservationDefinition/8bdea820-4197-7c7d-0990-7be06bf78aaf"/>
            </instantiatesReference>
            <status value="final"/>
            <code>
               <coding>
                  <system value="http://dummy.loinc.org"/>
                  <code value="DGP"/>
                  <display value="Degradation Products"/>
               </coding>
               <text value="Degradation Products"/>
            </code>
            <subject>
                    <!--Medication/medication-actual-batch-2-->
               <reference value="Medication/a9dfda53-734b-045f-7ae4-94a6281d53bc"/>
            </subject>
            <effectiveDateTime value="2023-01-01T12:00:00Z"/>
            <performer>
					<!--Organization/378fbe5f-5926-3a5c-4c64-5428df877b08-->
               <reference value="Organization/378fbe5f-5926-3a5c-4c64-5428df877b08"/>
            </performer>
            <valueQuantity>
               <value value="0.2"/>
               <unit value="% w/w"/>
               <system value="http://unitsofmeasure.org"/>
               <code value="%"/>
            </valueQuantity>
            <component>
               <code>
                  <coding>
                     <system value="http://dummy.loinc.org"/>
                     <code value="IMP"/>
                     <display value="Impurity"/>
                  </coding>
               </code>
               <valueCodeableConcept>
                        <!-- could have the code of an impurity substance, or could have an extension to point to it as a resource -->
                  <text value="Impurity 2"/>
               </valueCodeableConcept>
            </component>
         </Observation>
      </resource>
   </entry>
   <entry>
      <fullUrl value="urn:uuid:f0a13a3b-2e8b-594f-6874-6050511e4c57"/>
      <resource>
         <Observation>
                <!--observationDegradation-imp2-3-->
            <id value="f0a13a3b-2e8b-594f-6874-6050511e4c57"/>
            <instantiatesReference>
                    <!--ObservationDefinition/Degradation-->
               <reference value="ObservationDefinition/8bdea820-4197-7c7d-0990-7be06bf78aaf"/>
            </instantiatesReference>
            <status value="final"/>
            <code>
               <coding>
                  <system value="http://dummy.loinc.org"/>
                  <code value="DGP"/>
                  <display value="Degradation Products"/>
               </coding>
               <text value="Degradation Products"/>
            </code>
            <subject>
                    <!--Medication/medication-actual-batch-3-->
               <reference value="Medication/c6f5fadd-62e6-3a01-93d9-b3b182f67d06"/>
            </subject>
            <effectiveDateTime value="2023-01-01T12:00:00Z"/>
            <performer>
					<!--Organization/378fbe5f-5926-3a5c-4c64-5428df877b08-->
               <reference value="Organization/378fbe5f-5926-3a5c-4c64-5428df877b08"/>
            </performer>
            <valueQuantity>
               <value value="0.2"/>
               <unit value="% w/w"/>
               <system value="http://unitsofmeasure.org"/>
               <code value="%"/>
            </valueQuantity>
            <component>
               <code>
                  <coding>
                     <system value="http://dummy.loinc.org"/>
                     <code value="IMP"/>
                     <display value="Impurity"/>
                  </coding>
               </code>
               <valueCodeableConcept>
                        <!-- could have the code of an impurity substance, or could have an extension to point to it as a resource -->
                  <text value="Impurity 2"/>
               </valueCodeableConcept>
            </component>
         </Observation>
      </resource>
   </entry>
   <entry>
      <fullUrl value="urn:uuid:7fe7ccd7-6449-0186-2282-3eeb4cf6a795"/>
      <resource>
         <Observation>
                <!--observationDegradation-imp3-->
            <id value="7fe7ccd7-6449-0186-2282-3eeb4cf6a795"/>
            <instantiatesReference>
                    <!--ObservationDefinition/Degradation-->
               <reference value="ObservationDefinition/8bdea820-4197-7c7d-0990-7be06bf78aaf"/>
            </instantiatesReference>
            <status value="final"/>
            <code>
               <coding>
                  <system value="http://dummy.loinc.org"/>
                  <code value="DGP"/>
                  <display value="Degradation Products"/>
               </coding>
               <text value="Degradation Products"/>
            </code>
            <subject>
                    <!--Medication/medication-batch-information-pq-ex2-->
               <reference value="Medication/339b69fd-4ab1-a1e9-9ea5-1972ba2f6b51"/>
            </subject>
            <effectiveDateTime value="2023-01-01T12:00:00Z"/>
            <performer>
					<!--Organization/378fbe5f-5926-3a5c-4c64-5428df877b08-->
               <reference value="Organization/378fbe5f-5926-3a5c-4c64-5428df877b08"/>
            </performer>
            <valueQuantity>
               <value value="0.2"/>
               <unit value="% w/w"/>
               <system value="http://unitsofmeasure.org"/>
               <code value="%"/>
            </valueQuantity>
            <component>
               <code>
                  <coding>
                     <system value="http://dummy.loinc.org"/>
                     <code value="IMP"/>
                     <display value="Impurity"/>
                  </coding>
               </code>
               <valueCodeableConcept>
                        <!-- could have the code of an impurity substance, or could have an extension to point to it as a resource -->
                  <text value="Impurity 3"/>
               </valueCodeableConcept>
            </component>
         </Observation>
      </resource>
   </entry>
   <entry>
      <fullUrl value="urn:uuid:be016630-8754-7414-9014-21e020ad66c6"/>
      <resource>
         <Observation>
                <!--observationDegradation-imp3-2-->
            <id value="be016630-8754-7414-9014-21e020ad66c6"/>
            <instantiatesReference>
                    <!--ObservationDefinition/Degradation-->
               <reference value="ObservationDefinition/8bdea820-4197-7c7d-0990-7be06bf78aaf"/>
            </instantiatesReference>
            <status value="final"/>
            <code>
               <coding>
                  <system value="http://dummy.loinc.org"/>
                  <code value="DGP"/>
                  <display value="Degradation Products"/>
               </coding>
               <text value="Degradation Products"/>
            </code>
            <subject>
                    <!--Medication/medication-actual-batch-2-->
               <reference value="Medication/a9dfda53-734b-045f-7ae4-94a6281d53bc"/>
            </subject>
            <effectiveDateTime value="2023-01-01T12:00:00Z"/>
            <performer>
					<!--Organization/378fbe5f-5926-3a5c-4c64-5428df877b08-->
               <reference value="Organization/378fbe5f-5926-3a5c-4c64-5428df877b08"/>
            </performer>
            <valueQuantity>
               <value value="0.2"/>
               <unit value="% w/w"/>
               <system value="http://unitsofmeasure.org"/>
               <code value="%"/>
            </valueQuantity>
            <component>
               <code>
                  <coding>
                     <system value="http://dummy.loinc.org"/>
                     <code value="IMP"/>
                     <display value="Impurity"/>
                  </coding>
               </code>
               <valueCodeableConcept>
                        <!-- could have the code of an impurity substance, or could have an extension to point to it as a resource -->
                  <text value="Impurity 3"/>
               </valueCodeableConcept>
            </component>
         </Observation>
      </resource>
   </entry>
   <entry>
      <fullUrl value="urn:uuid:92568f68-78f3-908c-6935-ff5f3d574dd6"/>
      <resource>
         <Observation>
                <!--observationDegradation-imp3-3-->
            <id value="92568f68-78f3-908c-6935-ff5f3d574dd6"/>
            <instantiatesReference>
                    <!--ObservationDefinition/Degradation-->
               <reference value="ObservationDefinition/8bdea820-4197-7c7d-0990-7be06bf78aaf"/>
            </instantiatesReference>
            <status value="final"/>
            <code>
               <coding>
                  <system value="http://dummy.loinc.org"/>
                  <code value="DGP"/>
                  <display value="Degradation Products"/>
               </coding>
               <text value="Degradation Products"/>
            </code>
            <subject>
                    <!--Medication/medication-actual-batch-3-->
               <reference value="Medication/c6f5fadd-62e6-3a01-93d9-b3b182f67d06"/>
            </subject>
            <effectiveDateTime value="2023-01-01T12:00:00Z"/>
            <performer>
					<!--Organization/378fbe5f-5926-3a5c-4c64-5428df877b08-->
               <reference value="Organization/378fbe5f-5926-3a5c-4c64-5428df877b08"/>
            </performer>
            <valueQuantity>
               <value value="0.2"/>
               <unit value="% w/w"/>
               <system value="http://unitsofmeasure.org"/>
               <code value="%"/>
            </valueQuantity>
            <component>
               <code>
                  <coding>
                     <system value="http://dummy.loinc.org"/>
                     <code value="IMP"/>
                     <display value="Impurity"/>
                  </coding>
               </code>
               <valueCodeableConcept>
                        <!-- could have the code of an impurity substance, or could have an extension to point to it as a resource -->
                  <text value="Impurity 3"/>
               </valueCodeableConcept>
            </component>
         </Observation>
      </resource>
   </entry>
   <entry>
      <fullUrl value="urn:uuid:a0ba0f6d-8ec0-846a-a70d-f6bca6d01a12"/>
      <resource>
         <Observation>
                <!--observationDegradation-imp-unspecified-->
            <id value="a0ba0f6d-8ec0-846a-a70d-f6bca6d01a12"/>
            <instantiatesReference>
                    <!--ObservationDefinition/Degradation-->
               <reference value="ObservationDefinition/8bdea820-4197-7c7d-0990-7be06bf78aaf"/>
            </instantiatesReference>
            <status value="final"/>
            <code>
               <coding>
                  <system value="http://dummy.loinc.org"/>
                  <code value="DGP"/>
                  <display value="Degradation Products"/>
               </coding>
               <text value="Degradation Products"/>
            </code>
            <subject>
                    <!--Medication/medication-batch-information-pq-ex2-->
               <reference value="Medication/339b69fd-4ab1-a1e9-9ea5-1972ba2f6b51"/>
            </subject>
            <effectiveDateTime value="2023-01-01T12:00:00Z"/>
            <performer>
					<!--Organization/378fbe5f-5926-3a5c-4c64-5428df877b08-->
               <reference value="Organization/378fbe5f-5926-3a5c-4c64-5428df877b08"/>
            </performer>
            <valueQuantity>
               <value value="0.1"/>
               <unit value="% w/w"/>
               <system value="http://unitsofmeasure.org"/>
               <code value="%"/>
            </valueQuantity>
            <component>
               <code>
                  <coding>
                     <system value="http://dummy.loinc.org"/>
                     <code value="IMP"/>
                     <display value="Impurity"/>
                  </coding>
               </code>
               <valueCodeableConcept>
                        <!-- could have the code of an impurity substance, or could have an extension to point to it as a resource -->
                  <text value="Individual unspecified degradation products"/>
               </valueCodeableConcept>
            </component>
         </Observation>
      </resource>
   </entry>
   <entry>
      <fullUrl value="urn:uuid:d8533dcb-03f8-5997-6ccf-4f9b6f7a5745"/>
      <resource>
         <Observation>
                <!--observationDegradation-imp-unspecified-2-->
            <id value="d8533dcb-03f8-5997-6ccf-4f9b6f7a5745"/>
            <instantiatesReference>
                    <!--ObservationDefinition/Degradation-->
               <reference value="ObservationDefinition/8bdea820-4197-7c7d-0990-7be06bf78aaf"/>
            </instantiatesReference>
            <status value="final"/>
            <code>
               <coding>
                  <system value="http://dummy.loinc.org"/>
                  <code value="DGP"/>
                  <display value="Degradation Products"/>
               </coding>
               <text value="Degradation Products"/>
            </code>
            <subject>
                    <!--Medication/medication-actual-batch-2-->
               <reference value="Medication/a9dfda53-734b-045f-7ae4-94a6281d53bc"/>
            </subject>
            <effectiveDateTime value="2023-01-01T12:00:00Z"/>
            <performer>
					<!--Organization/378fbe5f-5926-3a5c-4c64-5428df877b08-->
               <reference value="Organization/378fbe5f-5926-3a5c-4c64-5428df877b08"/>
            </performer>
            <valueQuantity>
               <value value="0.1"/>
               <unit value="% w/w"/>
               <system value="http://unitsofmeasure.org"/>
               <code value="%"/>
            </valueQuantity>
            <component>
               <code>
                  <coding>
                     <system value="http://dummy.loinc.org"/>
                     <code value="IMP"/>
                     <display value="Impurity"/>
                  </coding>
               </code>
               <valueCodeableConcept>
                        <!-- could have the code of an impurity substance, or could have an extension to point to it as a resource -->
                  <text value="Individual unspecified degradation products"/>
               </valueCodeableConcept>
            </component>
         </Observation>
      </resource>
   </entry>
   <entry>
      <fullUrl value="urn:uuid:7cec19a2-34a7-6b80-3d60-083b2cc64fcb"/>
      <resource>
         <Observation>
                <!--observationDegradation-imp-unspecified-3-->
            <id value="7cec19a2-34a7-6b80-3d60-083b2cc64fcb"/>
            <instantiatesReference>
                    <!--ObservationDefinition/Degradation-->
               <reference value="ObservationDefinition/8bdea820-4197-7c7d-0990-7be06bf78aaf"/>
            </instantiatesReference>
            <status value="final"/>
            <code>
               <coding>
                  <system value="http://dummy.loinc.org"/>
                  <code value="DGP"/>
                  <display value="Degradation Products"/>
               </coding>
               <text value="Degradation Products"/>
            </code>
            <subject>
                    <!--Medication/medication-actual-batch-3-->
               <reference value="Medication/c6f5fadd-62e6-3a01-93d9-b3b182f67d06"/>
            </subject>
            <effectiveDateTime value="2023-01-01T12:00:00Z"/>
            <performer>
					<!--Organization/378fbe5f-5926-3a5c-4c64-5428df877b08-->
               <reference value="Organization/378fbe5f-5926-3a5c-4c64-5428df877b08"/>
            </performer>
            <valueQuantity>
               <value value="0.1"/>
               <unit value="% w/w"/>
               <system value="http://unitsofmeasure.org"/>
               <code value="%"/>
            </valueQuantity>
            <component>
               <code>
                  <coding>
                     <system value="http://dummy.loinc.org"/>
                     <code value="IMP"/>
                     <display value="Impurity"/>
                  </coding>
               </code>
               <valueCodeableConcept>
                        <!-- could have the code of an impurity substance, or could have an extension to point to it as a resource -->
                  <text value="Individual unspecified degradation products"/>
               </valueCodeableConcept>
            </component>
         </Observation>
      </resource>
   </entry>
   <entry>
      <fullUrl value="urn:uuid:27aa47fd-7964-4f96-6495-b2bec7f160e7"/>
      <resource>
         <Observation>
                <!--observationDegradation-imp-total-->
            <id value="27aa47fd-7964-4f96-6495-b2bec7f160e7"/>
            <instantiatesReference>
                    <!--ObservationDefinition/Degradation-->
               <reference value="ObservationDefinition/8bdea820-4197-7c7d-0990-7be06bf78aaf"/>
            </instantiatesReference>
            <status value="final"/>
            <code>
               <coding>
                  <system value="http://dummy.loinc.org"/>
                  <code value="DGP"/>
                  <display value="Degradation Products"/>
               </coding>
               <text value="Degradation Products"/>
            </code>
            <subject>
                    <!--Medication/medication-batch-information-pq-ex2-->
               <reference value="Medication/339b69fd-4ab1-a1e9-9ea5-1972ba2f6b51"/>
            </subject>
            <effectiveDateTime value="2023-01-01T12:00:00Z"/>
            <performer>
					<!--Organization/378fbe5f-5926-3a5c-4c64-5428df877b08-->
               <reference value="Organization/378fbe5f-5926-3a5c-4c64-5428df877b08"/>
            </performer>
            <valueQuantity>
               <value value="0.6"/>
               <unit value="% w/w"/>
               <system value="http://unitsofmeasure.org"/>
               <code value="%"/>
            </valueQuantity>
            <component>
               <code>
                  <coding>
                     <system value="http://dummy.loinc.org"/>
                     <code value="IMP"/>
                     <display value="Impurity"/>
                  </coding>
               </code>
               <valueCodeableConcept>
                        <!-- could have the code of an impurity substance, or could have an extension to point to it as a resource -->
                  <text value="Total degradation products"/>
               </valueCodeableConcept>
            </component>
         </Observation>
      </resource>
   </entry>
   <entry>
      <fullUrl value="urn:uuid:6a78bcde-4781-226c-946e-a4b6915c1899"/>
      <resource>
         <Observation>
                <!--observationDegradation-imp-total-2-->
            <id value="6a78bcde-4781-226c-946e-a4b6915c1899"/>
            <instantiatesReference>
                    <!--ObservationDefinition/Degradation-->
               <reference value="ObservationDefinition/8bdea820-4197-7c7d-0990-7be06bf78aaf"/>
            </instantiatesReference>
            <status value="final"/>
            <code>
               <coding>
                  <system value="http://dummy.loinc.org"/>
                  <code value="DGP"/>
                  <display value="Degradation Products"/>
               </coding>
               <text value="Degradation Products"/>
            </code>
            <subject>
                    <!--Medication/medication-actual-batch-2-->
               <reference value="Medication/a9dfda53-734b-045f-7ae4-94a6281d53bc"/>
            </subject>
            <effectiveDateTime value="2023-01-01T12:00:00Z"/>
            <performer>
					<!--Organization/378fbe5f-5926-3a5c-4c64-5428df877b08-->
               <reference value="Organization/378fbe5f-5926-3a5c-4c64-5428df877b08"/>
            </performer>
            <valueQuantity>
               <value value="0.7"/>
               <unit value="% w/w"/>
               <system value="http://unitsofmeasure.org"/>
               <code value="%"/>
            </valueQuantity>
            <component>
               <code>
                  <coding>
                     <system value="http://dummy.loinc.org"/>
                     <code value="IMP"/>
                     <display value="Impurity"/>
                  </coding>
               </code>
               <valueCodeableConcept>
                        <!-- could have the code of an impurity substance, or could have an extension to point to it as a resource -->
                  <text value="Total degradation products"/>
               </valueCodeableConcept>
            </component>
         </Observation>
      </resource>
   </entry>
   <entry>
      <fullUrl value="urn:uuid:f9f11088-7527-947c-3d3f-e71b32e13c78"/>
      <resource>
         <Observation>
                <!--observationDegradation-imp-total-3-->
            <id value="f9f11088-7527-947c-3d3f-e71b32e13c78"/>
            <instantiatesReference>
                    <!--ObservationDefinition/Degradation-->
               <reference value="ObservationDefinition/8bdea820-4197-7c7d-0990-7be06bf78aaf"/>
            </instantiatesReference>
            <status value="final"/>
            <code>
               <coding>
                  <system value="http://dummy.loinc.org"/>
                  <code value="DGP"/>
                  <display value="Degradation Products"/>
               </coding>
               <text value="Degradation Products"/>
            </code>
            <subject>
                    <!--Medication/medication-actual-batch-3-->
               <reference value="Medication/c6f5fadd-62e6-3a01-93d9-b3b182f67d06"/>
            </subject>
            <effectiveDateTime value="2023-01-01T12:00:00Z"/>
            <performer>
					<!--Organization/378fbe5f-5926-3a5c-4c64-5428df877b08-->
               <reference value="Organization/378fbe5f-5926-3a5c-4c64-5428df877b08"/>
            </performer>
            <valueQuantity>
               <value value="0.6"/>
               <unit value="% w/w"/>
               <system value="http://unitsofmeasure.org"/>
               <code value="%"/>
            </valueQuantity>
            <component>
               <code>
                  <coding>
                     <system value="http://dummy.loinc.org"/>
                     <code value="IMP"/>
                     <display value="Impurity"/>
                  </coding>
               </code>
               <valueCodeableConcept>
                        <!-- could have the code of an impurity substance, or could have an extension to point to it as a resource -->
                  <text value="Total degradation products"/>
               </valueCodeableConcept>
            </component>
         </Observation>
      </resource>
   </entry>
   <entry>
      <fullUrl value="urn:uuid:66c2f585-678e-78b8-2235-1a3b37bd6e46"/>
      <resource>
         <Observation>
                <!--observationWater-->
            <id value="66c2f585-678e-78b8-2235-1a3b37bd6e46"/>
            <instantiatesReference>
                    <!--ObservationDefinition/Water-->
               <reference value="ObservationDefinition/31e29d22-5fcb-546e-24fd-52a4a4004467"/>
            </instantiatesReference>
            <status value="final"/>
            <code>
               <coding>
                  <system value="http://dummy.loinc.org"/>
                  <code value="XXX"/>
                  <display value="Water Content"/>
               </coding>
               <text value="Water Content"/>
            </code>
            <subject>
                    <!--Medication/medication-batch-information-pq-ex2-->
               <reference value="Medication/339b69fd-4ab1-a1e9-9ea5-1972ba2f6b51"/>
            </subject>
            <effectiveDateTime value="2023-01-01T12:00:00Z"/>
            <performer>
					<!--Organization/378fbe5f-5926-3a5c-4c64-5428df877b08-->
               <reference value="Organization/378fbe5f-5926-3a5c-4c64-5428df877b08"/>
            </performer>
            <valueQuantity>
               <value value="0.5"/>
               <unit value="% w/w"/>
               <system value="http://unitsofmeasure.org"/>
               <code value="%"/>
            </valueQuantity>
         </Observation>
      </resource>
   </entry>
   <entry>
      <fullUrl value="urn:uuid:f8232d25-023d-679f-9c58-a6dc234b7a28"/>
      <resource>
         <Observation>
                <!--observationWater2-->
            <id value="f8232d25-023d-679f-9c58-a6dc234b7a28"/>
            <instantiatesReference>
                    <!--ObservationDefinition/Water-->
               <reference value="ObservationDefinition/31e29d22-5fcb-546e-24fd-52a4a4004467"/>
            </instantiatesReference>
            <status value="final"/>
            <code>
               <coding>
                  <system value="http://dummy.loinc.org"/>
                  <code value="XXX"/>
                  <display value="Water Content"/>
               </coding>
               <text value="Water Content"/>
            </code>
            <subject>
                    <!--Medication/medication-actual-batch-2-->
               <reference value="Medication/a9dfda53-734b-045f-7ae4-94a6281d53bc"/>
            </subject>
            <effectiveDateTime value="2023-01-01T12:00:00Z"/>
            <performer>
					<!--Organization/378fbe5f-5926-3a5c-4c64-5428df877b08-->
               <reference value="Organization/378fbe5f-5926-3a5c-4c64-5428df877b08"/>
            </performer>
            <valueQuantity>
               <value value="0.5"/>
               <unit value="% w/w"/>
               <system value="http://unitsofmeasure.org"/>
               <code value="%"/>
            </valueQuantity>
         </Observation>
      </resource>
   </entry>
   <entry>
      <fullUrl value="urn:uuid:368b82be-75dd-1d97-3dbc-a7eed9869daa"/>
      <resource>
         <Observation>
                <!--observationWater3-->
            <id value="368b82be-75dd-1d97-3dbc-a7eed9869daa"/>
            <instantiatesReference>
                    <!--ObservationDefinition/Water-->
               <reference value="ObservationDefinition/31e29d22-5fcb-546e-24fd-52a4a4004467"/>
            </instantiatesReference>
            <status value="final"/>
            <code>
               <coding>
                  <system value="http://dummy.loinc.org"/>
                  <code value="XXX"/>
                  <display value="Water Content"/>
               </coding>
               <text value="Water Content"/>
            </code>
            <subject>
                    <!--Medication/medication-actual-batch-3-->
               <reference value="Medication/c6f5fadd-62e6-3a01-93d9-b3b182f67d06"/>
            </subject>
            <effectiveDateTime value="2023-01-01T12:00:00Z"/>
            <performer>
					<!--Organization/378fbe5f-5926-3a5c-4c64-5428df877b08-->
               <reference value="Organization/378fbe5f-5926-3a5c-4c64-5428df877b08"/>
            </performer>
            <valueQuantity>
               <value value="0.5"/>
               <unit value="% w/w"/>
               <system value="http://unitsofmeasure.org"/>
               <code value="%"/>
            </valueQuantity>
         </Observation>
      </resource>
   </entry>
   <entry>
      <fullUrl value="urn:uuid:44aa47fd-8964-4f96-6495-b2bec7f160e7"/>
      <resource>
         <Observation>
                <!--fillingTAMC1-->
            <id value="44aa47fd-8964-4f96-6495-b2bec7f160e7"/>
            <instantiatesReference>
                    <!--ObservationDefinition/TAMC-->
               <reference value="ObservationDefinition/64505a3c-5034-448a-9c19-938ce1958424"/>
            </instantiatesReference>
            <status value="final"/>
            <code>
               <coding>
                  <system value="http://dummy.loinc.org"/>
                  <code value="XXX"/>
                  <display value="TAMC"/>
               </coding>
               <text value="TAMC"/>
            </code>
            <subject>
                    <!--Medication/medication-batch-information-pq-ex2-->
               <reference value="Medication/339b69fd-4ab1-a1e9-9ea5-1972ba2f6b51"/>
            </subject>
            <effectiveDateTime value="2023-01-01T12:00:00Z"/>
            <performer>
					<!--Organization/378fbe5f-5926-3a5c-4c64-5428df877b08-->
               <reference value="Organization/378fbe5f-5926-3a5c-4c64-5428df877b08"/>
            </performer>
            <valueQuantity>
               <value value="9.1"/>
               <unit value="CFU/100ml"/>
               <!-- todo UCUM -->
            </valueQuantity>
         </Observation>
      </resource>
   </entry>
   <entry>
      <fullUrl value="urn:uuid:45aa47fd-8964-4f96-6495-b2bec7f160e7"/>
      <resource>
         <Observation>
                <!--fillingConclusion-nosubject-->
            <id value="45aa47fd-8964-4f96-6495-b2bec7f160e7"/>
            <instantiatesReference>
                    <!--ObservationDefinition/conclusion-->
               <reference value="ObservationDefinition/22515a3c-5034-448a-9c19-938ce1958424"/>
            </instantiatesReference>
            <status value="final"/>
            <code>
               <coding>
                  <system value="http://dummy.loinc.org"/>
                  <code value="CONC"/>
                  <display value="Conclusion"/>
               </coding>
               <text value="Conclusion"/>
            </code>
            <!-- no subject because it applies to all the samples -->
            <subject>
               <extension url="http://hl7.org/fhir/StructureDefinition/data-absent-reason">
                  <valueCode value="unsupported"/>
               </extension>
               <display value="all batches"/>
            </subject>
            <effectiveDateTime value="2023-01-01T12:00:00Z"/>
            <performer>
                    <!--Organization/378fbe5f-5926-3a5c-4c64-5428df877b08-->
               <reference value="Organization/378fbe5f-5926-3a5c-4c64-5428df877b08"/>
            </performer>
            <valueString value="Conclusion of filling tests...."/>
         </Observation>
      </resource>
   </entry>
   <entry>
      <fullUrl value="urn:uuid:45ab47fd-8964-4f96-6495-b2bec7f160e7"/>
      <resource>
         <Observation>
                <!-- no subject -->                
                <!--lyophilizationConclusion-nosubject-->
            <id value="45ab47fd-8964-4f96-6495-b2bec7f160e7"/>
            <instantiatesReference>
                    <!--ObservationDefinition/LyophilizationConclusion-->
               <reference value="ObservationDefinition/22525a3c-5034-448a-9c19-938ce1958424"/>
            </instantiatesReference>
            <status value="final"/>
            <code>
               <coding>
                  <system value="http://dummy.loinc.org"/>
                  <code value="XXX"/>
                  <display value="Conclusion"/>
               </coding>
               <text value="Conclusion"/>
            </code>
            <!-- no subject because it applies to all the samples -->
            <subject>
               <extension url="http://hl7.org/fhir/StructureDefinition/data-absent-reason">
                  <valueCode value="unsupported"/>
               </extension>
               <display value="all batches"/>
            </subject>
            <effectiveDateTime value="2023-01-01T12:00:00Z"/>
            <performer>
                    <!--Organization/378fbe5f-5926-3a5c-4c64-5428df877b08-->
               <reference value="Organization/378fbe5f-5926-3a5c-4c64-5428df877b08"/>
            </performer>
            <valueString value="Conclusion of lyophilization tests...."/>
         </Observation>
      </resource>
   </entry>
   <entry>
      <fullUrl value="urn:uuid:37aa47fd-8964-4f96-6495-b2bec7f160e7"/>
      <resource>
         <Observation>
                <!--lyophilizerNumber1-->
            <id value="37aa47fd-8964-4f96-6495-b2bec7f160e7"/>
            <instantiatesReference>
                    <!--ObservationDefinition/LyophilizerNumber-->
               <reference value="ObservationDefinition/64535a3c-5334-448a-9c29-938ce2958424"/>
            </instantiatesReference>
            <status value="final"/>
            <code>
               <coding>
                  <system value="http://dummy.loinc.org"/>
                  <code value="XXX"/>
                  <display value="Lyophilizer Number"/>
               </coding>
               <text value="Assay"/>
            </code>
            <subject>
                    <!--Medication/medication-batch-information-pq-ex2-->
               <reference value="Medication/339b69fd-4ab1-a1e9-9ea5-1972ba2f6b51"/>
            </subject>
            <effectiveDateTime value="2023-01-01T12:00:00Z"/>
            <performer>
					<!--Organization/378fbe5f-5926-3a5c-4c64-5428df877b08-->
               <reference value="Organization/378fbe5f-5926-3a5c-4c64-5428df877b08"/>
            </performer>
            <valueQuantity>
               <value value="1234"/>
            </valueQuantity>
         </Observation>
      </resource>
   </entry>
   <entry>
      <fullUrl value="urn:uuid:38aa47fd-8964-4f96-6495-b2bec7f160e7"/>
      <resource>
         <Observation>
                <!--lyophilizerNumber2-->
            <id value="38aa47fd-8964-4f96-6495-b2bec7f160e7"/>
            <instantiatesReference>
                    <!--ObservationDefinition/LyophilizerNumber-->
               <reference value="ObservationDefinition/64535a3c-5334-448a-9c29-938ce2958424"/>
            </instantiatesReference>
            <status value="final"/>
            <code>
               <coding>
                  <system value="http://dummy.loinc.org"/>
                  <code value="XXX"/>
                  <display value="Lyophilizer Number"/>
               </coding>
               <text value="Assay"/>
            </code>
            <subject>
                    <!--Medication/medication-actual-batch-2-->
               <reference value="Medication/a9dfda53-734b-045f-7ae4-94a6281d53bc"/>
            </subject>
            <effectiveDateTime value="2023-01-01T12:00:00Z"/>
            <performer>
					<!--Organization/378fbe5f-5926-3a5c-4c64-5428df877b08-->
               <reference value="Organization/378fbe5f-5926-3a5c-4c64-5428df877b08"/>
            </performer>
            <valueQuantity>
               <value value="1235"/>
            </valueQuantity>
         </Observation>
      </resource>
   </entry>
   <entry>
      <fullUrl value="urn:uuid:38aa48fd-8964-4f96-6495-b2bec7f160e7"/>
      <resource>
         <Observation>
                <!--lyophilizerNumber3-->
            <id value="38aa48fd-8964-4f96-6495-b2bec7f160e7"/>
            <instantiatesReference>
                    <!--ObservationDefinition/LyophilizerNumber-->
               <reference value="ObservationDefinition/64535a3c-5334-448a-9c29-938ce2958424"/>
            </instantiatesReference>
            <status value="final"/>
            <code>
               <coding>
                  <system value="http://dummy.loinc.org"/>
                  <code value="XXX"/>
                  <display value="Lyophilizer Number"/>
               </coding>
               <text value="Assay"/>
            </code>
            <subject>
                    <!--Medication/medication-actual-batch-3-->
               <reference value="Medication/c6f5fadd-62e6-3a01-93d9-b3b182f67d06"/>
            </subject>
            <effectiveDateTime value="2023-01-01T12:00:00Z"/>
            <performer>
					<!--Organization/378fbe5f-5926-3a5c-4c64-5428df877b08-->
               <reference value="Organization/378fbe5f-5926-3a5c-4c64-5428df877b08"/>
            </performer>
            <valueQuantity>
               <value value="1236"/>
            </valueQuantity>
         </Observation>
      </resource>
   </entry>
   <entry>
      <fullUrl value="urn:uuid:37aa47fd-7964-4f96-6495-b2bec7f160e7"/>
      <resource>
         <Observation>
                <!--lyophilizationAssay1-->
            <id value="37aa47fd-7964-4f96-6495-b2bec7f160e7"/>
            <instantiatesReference>
                    <!--ObservationDefinition/LyophilizationAssay-->
               <reference value="ObservationDefinition/22e7e672-40a6-4036-3c1f-b8ba6a7d045e"/>
            </instantiatesReference>
            <status value="final"/>
            <code>
               <coding>
                  <system value="http://dummy.loinc.org"/>
                  <code value="xxx"/>
                  <display value="Assay"/>
               </coding>
               <text value="Assay"/>
            </code>
            <subject>
                    <!--Medication/medication-batch-information-pq-ex2-->
               <reference value="Medication/339b69fd-4ab1-a1e9-9ea5-1972ba2f6b51"/>
            </subject>
            <effectiveDateTime value="2023-01-01T12:00:00Z"/>
            <performer>
					<!--Organization/378fbe5f-5926-3a5c-4c64-5428df877b08-->
               <reference value="Organization/378fbe5f-5926-3a5c-4c64-5428df877b08"/>
            </performer>
            <valueQuantity>
               <value value="97"/>
               <unit value="%"/>
               <system value="http://unitsofmeasure.org"/>
               <code value="%"/>
            </valueQuantity>
            <component>
               <code>
                  <coding>
                     <system value="http://dummy.loinc.org"/>
                     <code value="LOC"/>
                     <display value="Number of Locations"/>
                  </coding>
               </code>
               <valueInteger value="3"/>
            </component>
         </Observation>
      </resource>
   </entry>
   <entry>
      <fullUrl value="urn:uuid:47aa47fd-7964-4f96-6495-b2bec7f160e7"/>
      <resource>
         <Observation>
                <!--lyophilizationAssay2-->
            <id value="47aa47fd-7964-4f96-6495-b2bec7f160e7"/>
            <instantiatesReference>
                    <!--ObservationDefinition/LyophilizationAssay-->
               <reference value="ObservationDefinition/22e7e672-40a6-4036-3c1f-b8ba6a7d045e"/>
            </instantiatesReference>
            <status value="final"/>
            <code>
               <coding>
                  <system value="http://dummy.loinc.org"/>
                  <code value="xxx"/>
                  <display value="Assay"/>
               </coding>
               <text value="Assay"/>
            </code>
            <subject>
                    <!--Medication/medication-actual-batch-2-->
               <reference value="Medication/a9dfda53-734b-045f-7ae4-94a6281d53bc"/>
            </subject>
            <effectiveDateTime value="2023-01-01T12:00:00Z"/>
            <performer>
					<!--Organization/378fbe5f-5926-3a5c-4c64-5428df877b08-->
               <reference value="Organization/378fbe5f-5926-3a5c-4c64-5428df877b08"/>
            </performer>
            <valueQuantity>
               <value value="98"/>
               <unit value="%"/>
               <system value="http://unitsofmeasure.org"/>
               <code value="%"/>
            </valueQuantity>
            <component>
               <code>
                  <coding>
                     <system value="http://dummy.loinc.org"/>
                     <code value="LOC"/>
                     <display value="Number of Locations"/>
                  </coding>
               </code>
               <valueInteger value="4"/>
            </component>
         </Observation>
      </resource>
   </entry>
   <entry>
      <fullUrl value="urn:uuid:47aa47fd-7964-4f96-6495-b2bec7f160e8"/>
      <resource>
         <Observation>
                <!--lyophilizationAssay3-->
            <id value="47aa47fd-7964-4f96-6495-b2bec7f160e8"/>
            <instantiatesReference>
                    <!--ObservationDefinition/LyophilizationAssay-->
               <reference value="ObservationDefinition/22e7e672-40a6-4036-3c1f-b8ba6a7d045e"/>
            </instantiatesReference>
            <status value="final"/>
            <code>
               <coding>
                  <system value="http://dummy.loinc.org"/>
                  <code value="xxx"/>
                  <display value="Assay"/>
               </coding>
               <text value="Assay"/>
            </code>
            <subject>
                    <!--Medication/medication-actual-batch-3-->
               <reference value="Medication/c6f5fadd-62e6-3a01-93d9-b3b182f67d06"/>
            </subject>
            <effectiveDateTime value="2023-01-01T12:00:00Z"/>
            <performer>
					<!--Organization/378fbe5f-5926-3a5c-4c64-5428df877b08-->
               <reference value="Organization/378fbe5f-5926-3a5c-4c64-5428df877b08"/>
            </performer>
            <valueQuantity>
               <value value="96"/>
               <unit value="%"/>
               <system value="http://unitsofmeasure.org"/>
               <code value="%"/>
            </valueQuantity>
            <component>
               <code>
                  <coding>
                     <system value="http://dummy.loinc.org"/>
                     <code value="LOC"/>
                     <display value="Number of Locations"/>
                  </coding>
               </code>
               <valueInteger value="2"/>
            </component>
         </Observation>
      </resource>
   </entry>
   <entry>
      <fullUrl value="urn:uuid:47aa47fd-8964-4f96-6495-b2bec7f160e7"/>
      <resource>
         <Observation>
                <!--lyophilizerWaterHomogeneity1-->
            <id value="47aa47fd-8964-4f96-6495-b2bec7f160e7"/>
            <instantiatesReference>
                    <!--ObservationDefinition/LyophilizationWaterHomogeneity-->
               <reference value="ObservationDefinition/32e29d22-6fcb-546e-24fd-52a4a4004467"/>
            </instantiatesReference>
            <status value="final"/>
            <code>
               <coding>
                  <system value="http://dummy.loinc.org"/>
                  <code value="xxx"/>
                  <display value="Lyophilization Water Homogeneity"/>
               </coding>
               <text value="Lyophilization Water Homogeneity"/>
            </code>
            <subject>
                    <!--Medication/medication-batch-information-pq-ex2-->
               <reference value="Medication/339b69fd-4ab1-a1e9-9ea5-1972ba2f6b51"/>
            </subject>
            <effectiveDateTime value="2023-01-01T12:00:00Z"/>
            <performer>
					<!--Organization/378fbe5f-5926-3a5c-4c64-5428df877b08-->
               <reference value="Organization/378fbe5f-5926-3a5c-4c64-5428df877b08"/>
            </performer>
            <component>
               <code>
                  <coding>
                     <system value="http://dummy.loinc.org"/>
                     <code value="SSE"/>
                     <display value="Statistically significant effects"/>
                  </coding>
                  <text value="Do statistically significant effects"/>
               </code>
               <valueString value="Yes"/>
            </component>
            <component>
               <code>
                  <coding>
                     <system value="http://dummy.loinc.org"/>
                     <code value="LCL"/>
                     <display value="Lower one-sided 95% confidence limit of Max Difference"/>
                  </coding>
               </code>
               <valueQuantity>
                  <value value="0.8"/>
                  <unit value="%"/>
               </valueQuantity>
            </component>
            <component>
               <code>
                  <coding>
                     <system value="http://dummy.loinc.org"/>
                     <code value="UCL"/>
                     <display value="Upper one-sided 95% confidence limit of Max Difference"/>
                  </coding>
                  <text value="Upper one-sided 95% confidence limit of Max Difference"/>
               </code>
               <valueQuantity>
                  <value value="0.9"/>
                  <unit value="%"/>
               </valueQuantity>
            </component>
            <component>
               <code>
                  <coding>
                     <system value="http://dummy.loinc.org"/>
                     <code value="Homogeneity"/>
                     <display value="Homogeneity demonstrated"/>
                  </coding>
                  <text value="Was Homogeneity demonstrated?"/>
               </code>
               <valueString value="Yes"/>
               <!-- boolean? -->
            </component>
         </Observation>
      </resource>
   </entry>
   <entry>
      <fullUrl value="urn:uuid:47aa47fd-8964-5f96-6495-b2bec7f160e7"/>
      <resource>
         <Observation>
                <!--lyophilizerAssayHomogeneity1-->
            <id value="47aa47fd-8964-5f96-6495-b2bec7f160e7"/>
            <instantiatesReference>
                    <!--ObservationDefinition/LyophilizationAssayHomogeneity-->
               <reference value="ObservationDefinition/32e29d32-6fcb-546e-24fd-52a4a4004467"/>
            </instantiatesReference>
            <status value="final"/>
            <code>
               <coding>
                  <system value="http://dummy.loinc.org"/>
                  <code value="xxx"/>
                  <display value="Lyophilization Assay Homogeneity"/>
               </coding>
               <text value="Lyophilization Assay Homogeneity"/>
            </code>
            <subject>
                    <!--Medication/medication-batch-information-pq-ex2-->
               <reference value="Medication/339b69fd-4ab1-a1e9-9ea5-1972ba2f6b51"/>
            </subject>
            <effectiveDateTime value="2023-01-01T12:00:00Z"/>
            <performer>
					<!--Organization/378fbe5f-5926-3a5c-4c64-5428df877b08-->
               <reference value="Organization/378fbe5f-5926-3a5c-4c64-5428df877b08"/>
            </performer>
            <component>
               <code>
                  <coding>
                     <system value="http://dummy.loinc.org"/>
                     <code value="SSE"/>
                     <display value="Statistically significant effects"/>
                  </coding>
                  <text value="Do statistically significant effects"/>
               </code>
               <valueString value="No"/>
            </component>
            <component>
               <code>
                  <coding>
                     <system value="http://dummy.loinc.org"/>
                     <code value="LCL"/>
                     <display value="Lower one-sided 95% confidence limit of Max Difference"/>
                  </coding>
               </code>
               <valueString value="Not calculated"/>
            </component>
            <component>
               <code>
                  <coding>
                     <system value="http://dummy.loinc.org"/>
                     <code value="UCL"/>
                     <display value="Upper one-sided 95% confidence limit of Max Difference"/>
                  </coding>
                  <text value="Upper one-sided 95% confidence limit of Max Difference"/>
               </code>
               <valueString value="Not calculated"/>
            </component>
            <component>
               <code>
                  <coding>
                     <system value="http://dummy.loinc.org"/>
                     <code value="Homogeneity"/>
                     <display value="Homogeneity demonstrated"/>
                  </coding>
                  <text value="Was Homogeneity demonstrated?"/>
               </code>
               <valueString value="Yes"/>
               <!-- boolean? -->
            </component>
         </Observation>
      </resource>
   </entry>
   <!-- MedicinalProductDefinition - the main resource in any product scenario -->
   <entry>
      <fullUrl value="urn:uuid:a0694a7a-aafa-4cbe-8135-c788a9a4d3d5"/>
      <resource>
            <!-- Section 1.1 - DP Identification -->
         <MedicinalProductDefinition>
                <!--medicinalproductdefinition-drug-product-pq-ex1-->
            <id value="a0694a7a-aafa-4cbe-8135-c788a9a4d3d5"/>
            <description value="Textual description of the product"/>
            <combinedPharmaceuticalDoseForm>
               <coding>
                  <system value="https://spor.ema.europa.eu/v1/lists/200000000004"/>
                  <code value="100000073667"/>
                  <display value="Gastro-resistant tablet"/>
               </coding>
            </combinedPharmaceuticalDoseForm>
            <route>
               <coding>
                  <system value="https://spor.ema.europa.eu/v1/lists/100000073345"/>
                  <code value="100000073619"/>
                  <display value="Oral use"/>
               </coding>
            </route>
            <name>
               <productName value="Stelbat Tablets, 20mg"/>
               <type>
                  <coding>
                     <system value="http://accumulus.org/fhir/code/productNameType"/>
                     <code value="1234"/>
                     <display value="Proprietary"/>
                  </coding>
               </type>
               <part>
                  <part value="20mg"/>
                  <type>
                     <coding>
                        <system value="http://hl7.org/fhir/medicinal-product-name-part-type"/>
                        <code value="StrengthPart"/>
                        <display value="Strength part"/>
                     </coding>
                  </type>
               </part>
            </name>
         </MedicinalProductDefinition>
      </resource>
   </entry>
   <entry>
      <fullUrl value="urn:uuid:a0694a7a-aafa-4cbe-8135-c788a9a4d3d6"/>
      <resource>
         <Ingredient>
				<!--productIngredient-->
            <id value="a0694a7a-aafa-4cbe-8135-c788a9a4d3d6"/>
            <status value="active"/>
            <for>
				    <!--MedicinalProductDefinition/medicinalproductdefinition-drug-product-pq-ex1-->
               <reference value="MedicinalProductDefinition/a0694a7a-aafa-4cbe-8135-c788a9a4d3d5"/>
            </for>
            <role>
               <coding>
                  <system value="http://hl7.org/fhir/ingredient-role"/>
                  <code value="100000072072"/>
                  <display value="Active"/>
               </coding>
            </role>
            <substance>
               <code>
                  <reference>
							<!--SubstanceDefinition/substance1-->
                     <reference value="SubstanceDefinition/6eb94d34-48b4-5bb0-4c05-e183d2ea3e95"/>
                  </reference>
               </code>
            </substance>
         </Ingredient>
      </resource>
   </entry>
   <entry>
      <fullUrl value="urn:uuid:6eb94d34-48b4-5bb0-4c05-e183d2ea3e95"/>
      <resource>
         <SubstanceDefinition>
        		<!--substance1-->
            <id value="6eb94d34-48b4-5bb0-4c05-e183d2ea3e95"/>
            <manufacturer>
        			<!--Organization/substance-manufacturer-->
               <reference value="Organization/23dbbd32-2962-9fc3-40b1-67e864f21cd2"/>
            </manufacturer>
            <name>
               <name value="Stelbatolol"/>
               <!-- #4 -->
            </name>
         </SubstanceDefinition>
      </resource>
   </entry>
   <entry>
      <fullUrl value="urn:uuid:23dbbd32-2962-9fc3-40b1-67e864f21cd2"/>
      <resource>
         <Organization>
				<!--substance-manufacturer-->
            <id value="23dbbd32-2962-9fc3-40b1-67e864f21cd2"/>
            <identifier>
					<!-- FDA establishment identifier -->
               <system value="urn:oid:2.16.840.1.113883.4.82"/>
               <value value="3003040516"/>
            </identifier>
            <name value="AAA Molybdenum Products, Inc."/>
            <contact>
               <address>
                  <line value="7233 W 116th Pl"/>
                  <line value="Ste C"/>
                  <city value="Broomfield"/>
                  <state value="Colorado"/>
                  <postalCode value="80020"/>
                  <country value="USA"/>
               </address>
            </contact>
         </Organization>
      </resource>
   </entry>
   <entry>
      <fullUrl value="urn:uuid:57a9af63-315d-1585-a261-0e337b289390"/>
      <resource>
         <SubstanceDefinition>
                <!--substancedefinition-component-substance-drug-pq-ex1-->
            <id value="57a9af63-315d-1585-a261-0e337b289390"/>
            <meta>
               <profile value="http://hl7.org/fhir/uv/pharm-quality/StructureDefinition/SubstanceDefinition-component-substance-drug-pq"/>
            </meta>
            <manufacturer>
                    <!--Organization/organization-drug-pq-ex1-->
               <reference value="Organization/49d2f0c0-4b28-9271-8aaf-2996a8b9739c"/>
            </manufacturer>
            <name>
               <name value="Stelbatolol"/>
               <!-- #4 -->
            </name>
         </SubstanceDefinition>
      </resource>
   </entry>
   <entry>
      <fullUrl value="urn:uuid:49d2f0c0-4b28-9271-8aaf-2996a8b9739c"/>
      <resource>
         <Organization>
                <!--id value="substance-manufacturer"/-->
                <!--organization-drug-pq-ex1-->
            <id value="49d2f0c0-4b28-9271-8aaf-2996a8b9739c"/>
            <meta>
               <profile value="http://hl7.org/fhir/uv/pharm-quality/StructureDefinition/Organization-drug-pq"/>
            </meta>
            <identifier>
                    <!-- FDA establishment identifier -->
               <system value="urn:oid:2.16.840.1.113883.4.82"/>
               <value value="3003040516"/>
            </identifier>
            <name value="AAA Molybdenum Products, Inc."/>
            <contact>
               <address>
                  <line value="7233 W 116th Pl"/>
                  <line value="Ste C"/>
                  <city value="Broomfield"/>
                  <state value="Colorado"/>
                  <postalCode value="80020"/>
                  <country value="USA"/>
               </address>
            </contact>
         </Organization>
      </resource>
   </entry>
   <!-- manufacturing plan -->
   <entry>
      <fullUrl value="urn:uuid:bf6b038b-1334-3dd4-a552-65c169e2265a"/>
      <resource>
         <PlanDefinition>
                <!-- focal resource -->
            <id value="plandefinition-drug-pq-ex2-manufacturing-plan"/>
            <!-- indicate this is as subset of the resource. In practice it would have it all -->
            <meta>
               <profile value="http://hl7.org/fhir/uv/pharm-quality/StructureDefinition/PlanDefinition-drug-pq"/>
               <tag>
                  <system value="http://terminology.hl7.org/CodeSystem/v3-ObservationValue"/>
                  <code value="SUBSETTED"/>
               </tag>
            </meta>
            <extension url="http://hl7.org/fhir/uv/pharm-quality/StructureDefinition/Extension-history-of-process-pq">
               <valueMarkdown value="This can be text about the history"/>
            </extension>
            <!--http://example-server.com/fhir/PlanDefinition/bf6b038b-1334-3dd4-a552-65c169e2265a-->
            <url value="http://example-server.com/fhir/PlanDefinition/bf6b038b-1334-3dd4-a552-65c169e2265a"/>
            <title value="Process 1.0"/>
            <type>
               <coding>
                  <system value="http://terminology.hl7.org/CodeSystem/plan-definition-type"/>
                  <code value="workflow-definition"/>
                  <display value="Workflow Definition"/>
               </coding>
               <coding>
                  <system value="http://accumulus.org/fhir/code/planType"/>
                  <code value="manufacturing-process"/>
                  <display value="Manufacturing Process"/>
               </coding>
            </type>
            <status value="active"/>
            <!-- #83 -->
            <subjectReference>
                    <!--MedicinalProductDefinition/medicinalproductdefinition-drug-product-pq-ex1-->
               <reference value="MedicinalProductDefinition/a0694a7a-aafa-4cbe-8135-c788a9a4d3d5"/>
            </subjectReference>
            <description value="Narrative description of manufacturing process (5)"/>
            <!-- #85 -->
            <goal id="goal-control-pH">
               <category>
                  <coding>
                     <system value="http://accumulus.org/fhir/code/testCategory"/>
                     <code value="C123456"/>
                     <display value="Physical Property"/>
                  </coding>
               </category>
               <description>
                  <text value="Controls - pH"/>
                  <!-- this is mandatory, even though we don't really want it -->
               </description>
               <priority>
                  <coding>
                     <system value="http://accumulus.org/fhir/code/goalPriority"/>
                     <code value="critical"/>
                     <display value="Critical"/>
                  </coding>
               </priority>
               <target>
                  <measure>
                     <coding>
                        <system value="http://dummy.loinc.org"/>
                        <code value="PH"/>
                        <display value="pH Level"/>
                     </coding>
                     <text value="pH must be in range 6.9 to 7.1"/>
                  </measure>
                  <!--detailString value="can also be a string"-->
                  <detailRange>
                     <low>
                        <value value="6.9"/>
                        <unit value="pH"/>
                     </low>
                     <high>
                        <value value="7.1"/>
                        <unit value="pH"/>
                     </high>
                  </detailRange>
               </target>
            </goal>
            <goal id="goal-control-water-content">
               <category>
                  <coding>
                     <system value="http://accumulus.org/fhir/code/testCategory"/>
                     <code value="C123456"/>
                     <display value="Physical Property"/>
                  </coding>
               </category>
               <description>
                  <text value="Controls - Water Content"/>
                  <!-- this is mandatory, even though we don't really want it -->
               </description>
               <priority>
                  <coding>
                     <system value="http://accumulus.org/fhir/code/goalPriority"/>
                     <code value="critical"/>
                     <display value="Critical"/>
                  </coding>
               </priority>
               <target>
                  <measure>
                     <coding>
                        <system value="http://dummy.loinc.org"/>
                        <code value="WaterContent"/>
                        <display value="Water content"/>
                     </coding>
                     <text value="Under 2%"/>
                  </measure>
                  <!--detailString value="can also be a string"-->
                  <detailRange>
                     <high>
                        <value value="2"/>
                        <unit value="%"/>
                     </high>
                  </detailRange>
               </target>
            </goal>
            <goal id="goal-control-particle-size">
               <category>
                  <coding>
                     <system value="http://accumulus.org/fhir/code/testCategory"/>
                     <code value="C123456"/>
                     <display value="Physical Property"/>
                  </coding>
               </category>
               <description>
                  <text value="Controls - Particle Size"/>
               </description>
               <priority>
                  <coding>
                     <system value="http://accumulus.org/fhir/code/goalPriority"/>
                     <code value="critical"/>
                     <display value="Critical"/>
                  </coding>
               </priority>
               <target>
                  <measure>
                     <coding>
                        <system value="http://dummy.loinc.org"/>
                        <code value="ParticleSize"/>
                        <display value="Particle Size"/>
                     </coding>
                     <text value="Under 200 microns"/>
                  </measure>
                  <!--detailString value="can also be a string"-->
                  <detailRange>
                     <high>
                        <value value="200"/>
                        <unit value="microns"/>
                     </high>
                  </detailRange>
               </target>
            </goal>
            <actor>
               <option>
                  <typeReference>
                            <!--DeviceDefinition/mixing-vessel-->
                     <reference value="DeviceDefinition/82a39a18-91cf-a29d-76c1-a9e8bad9494d"/>
                  </typeReference>
                  <role>
                     <coding>
                        <system value="http://accumulus.org/fhir/code/equipmentClass"/>
                        <code value="mixing-vessel"/>
                        <display value="Mixing Vessel"/>
                     </coding>
                  </role>
               </option>
            </actor>
            <actor>
               <option>
                  <typeReference>
                            <!--DeviceDefinition/receiving-tank-->
                     <reference value="DeviceDefinition/82a39a18-91cf-b29d-76c1-a9e8bad9494d"/>
                  </typeReference>
                  <role>
                     <coding>
                        <system value="http://accumulus.org/fhir/code/equipmentClass"/>
                        <code value="receiving-vessel"/>
                        <display value="Receiving Vessel"/>
                     </coding>
                  </role>
               </option>
            </actor>
            <!-- another outer action can be the whole thing, if needed -->
            <!-- removed the main actions for brevity (see manufacturing example) -->
         </PlanDefinition>
      </resource>
   </entry>
   <entry>
      <fullUrl value="urn:uuid:82a39a18-91cf-a29d-76c1-a9e8bad9494d"/>
      <resource>
         <DeviceDefinition>
                <!--mixing-vessel-->
            <id value="82a39a18-91cf-a29d-76c1-a9e8bad9494d"/>
            <deviceName>
               <name value="Mixing Vessel"/>
               <type value="registered-name"/>
            </deviceName>
            <classification>
               <type>
                  <coding>
                     <system value="http://accumulus.org/fhir/code/deviceType"/>
                     <code value="mixing-vessel"/>
                     <display value="Mixing Vessel"/>
                  </coding>
               </type>
            </classification>
            <property>
               <type>
                  <coding>
                     <system value="http://accumulus.org/fhir/code/deviceProperty"/>
                     <code value="capacity"/>
                     <display value="Capacity"/>
                     <!-- seems a little different to "maximum capacity -->
                  </coding>
               </type>
               <valueQuantity>
                  <value value="1000"/>
                  <unit value="litres"/>
               </valueQuantity>
            </property>
         </DeviceDefinition>
      </resource>
   </entry>
   <entry>
      <fullUrl value="urn:uuid:82a39a18-91cf-b29d-76c1-a9e8bad9494d"/>
      <resource>
         <DeviceDefinition>
                <!--receiving-tank-->
            <id value="82a39a18-91cf-b29d-76c1-a9e8bad9494d"/>
            <deviceName>
               <name value="Receiving Tank"/>
               <type value="registered-name"/>
            </deviceName>
            <classification>
               <type>
                  <coding>
                     <system value="http://accumulus.org/fhir/code/deviceType"/>
                     <code value="receiving-tank"/>
                     <display value="Receiving Tank"/>
                  </coding>
               </type>
            </classification>
            <property>
               <type>
                  <coding>
                     <system value="http://accumulus.org/fhir/code/deviceProperty"/>
                     <code value="capacity"/>
                     <display value="Capacity"/>
                     <!-- seems a little different to "maximum capacity -->
                  </coding>
               </type>
               <valueQuantity>
                  <value value="1200"/>
                  <unit value="litres"/>
               </valueQuantity>
            </property>
         </DeviceDefinition>
      </resource>
   </entry>
   <entry>
      <fullUrl value="urn:uuid:fc078762-81c5-5656-9744-13c7ad1e595b"/>
      <resource>
         <Substance>
                <!--<id value="actual-batch-substance"/>-->
                <!--substance-drug-pq-ex1-->
            <id value="fc078762-81c5-5656-9744-13c7ad1e595b"/>
            <meta>
               <profile value="http://hl7.org/fhir/uv/pharm-quality/StructureDefinition/Substance-drug-pq"/>
            </meta>
            <extension url="http://hl7.org/fhir/StructureDefinition/medication-manufacturingBatch">
               <extension url="http://hl7.org/fhir/uv/pharm-quality/StructureDefinition/Extension-batch-release-date-pq">
                  <valueDateTime value="2019-09-08"/>
                  <!-- #173 -->
               </extension>
               <extension url="http://hl7.org/fhir/uv/pharm-quality/StructureDefinition/Extension-batch-retest-date-pq">
                  <valueDateTime value="2022-09-08"/>
                  <!-- #221 -->
               </extension>
               <extension url="manufacturingDate">
                  <valueDateTime value="2019-09-07"/>
                  <!-- #159 -->
               </extension>
               <extension url="batchQuantity"> <!-- #157 -->
                  <valueQuantity>
                     <value value="5"/>
                     <unit value="kg"/>
                     <!-- #158 -->
                  </valueQuantity>
               </extension>
               <extension url="http://hl7.org/fhir/uv/pharm-quality/StructureDefinition/Extension-actual-yield-pq">
                  <valueQuantity>
                     <value value="4.8"/>
                     <unit value="kg"/>
                  </valueQuantity>
               </extension>
               <extension url="batchUtilization"><!-- #161 -->
                  <valueCodeableConcept>
                     <coding>
                        <system value="http://temp.hl7.org/fhir/us/pq-cmc/CodeSystem/pqcmc-batch-utilization-terminology"/>
                        <code value="C133991"/>
                        <display value="Development"/>
                     </coding>
                  </valueCodeableConcept>
               </extension>
               <extension url="assignedManufacturer"> <!-- #160 -->
                  <valueReference>
                            <!--Organization/organization-drug-pq-ex1-->
                     <reference value="Organization/49d2f0c0-4b28-9271-8aaf-2996a8b9739c"/>
                  </valueReference>
               </extension>
            </extension>
            <identifier>
               <value value="CAT1"/>
               <!-- #155 -->
            </identifier>
            <instance value="true"/>
            <code>
               <reference>
                        <!--SubstanceDefinition/substancedefinition-component-substance-drug-pq-ex1-->
                  <reference value="SubstanceDefinition/57a9af63-315d-1585-a261-0e337b289390"/>
               </reference>
            </code>
         </Substance>
      </resource>
   </entry>
   <entry>
      <fullUrl value="urn:uuid:cb31d747-2338-88d5-342c-8e9c097e4dad"/>
      <resource>
         <Substance>
                <!--actual-batch-substance-2-->
            <id value="cb31d747-2338-88d5-342c-8e9c097e4dad"/>
            <extension url="http://hl7.org/fhir/StructureDefinition/medication-manufacturingBatch">
               <extension url="http://hl7.org/fhir/uv/pharm-quality/StructureDefinition/Extension-batch-release-date-pq">
                  <valueDateTime value="2019-09-08"/>
                  <!-- #173 -->
               </extension>
               <extension url="http://hl7.org/fhir/uv/pharm-quality/StructureDefinition/Extension-batch-retest-date-pq">
                  <valueDateTime value="2022-09-08"/>
                  <!-- #221 -->
               </extension>
               <extension url="manufacturingDate">
                  <valueDateTime value="2019-09-07"/>
                  <!-- #159 -->
               </extension>
               <extension url="batchQuantity"> <!-- #157 -->
                  <valueQuantity>
                     <value value="5"/>
                     <unit value="kg"/>
                     <!-- #158 -->
                  </valueQuantity>
               </extension>
               <extension url="http://hl7.org/fhir/uv/pharm-quality/StructureDefinition/Extension-actual-yield-pq">
                  <valueQuantity>
                     <value value="4.8"/>
                     <unit value="kg"/>
                  </valueQuantity>
               </extension>
               <extension url="batchUtilization"><!-- #161 -->
                  <valueCodeableConcept>
                     <coding>
                        <system value="http://temp.hl7.org/fhir/us/pq-cmc/CodeSystem/pqcmc-batch-utilization-terminology"/>
                        <code value="C133991"/>
                        <display value="Development"/>
                     </coding>
                  </valueCodeableConcept>
               </extension>
               <extension url="assignedManufacturer"> <!-- #160 -->
                  <valueReference>
                            <!--Organization/organization-drug-pq-ex1-->
                     <reference value="Organization/49d2f0c0-4b28-9271-8aaf-2996a8b9739c"/>
                  </valueReference>
               </extension>
            </extension>
            <identifier>
               <value value="CAT2"/>
            </identifier>
            <instance value="true"/>
            <code>
               <reference>
                        <!--SubstanceDefinition/substancedefinition-component-substance-drug-pq-ex1-->
                  <reference value="SubstanceDefinition/57a9af63-315d-1585-a261-0e337b289390"/>
               </reference>
            </code>
         </Substance>
      </resource>
   </entry>
   <entry>
      <fullUrl value="urn:uuid:1551f97b-6f6d-825e-1fb3-44b0b090808c"/>
      <resource>
         <Substance>
                <!--actual-batch-substance-3-->
            <id value="1551f97b-6f6d-825e-1fb3-44b0b090808c"/>
            <extension url="http://hl7.org/fhir/StructureDefinition/medication-manufacturingBatch">
               <extension url="http://hl7.org/fhir/uv/pharm-quality/StructureDefinition/Extension-batch-release-date-pq">
                  <valueDateTime value="2019-09-08"/>
                  <!-- #173 -->
               </extension>
               <extension url="http://hl7.org/fhir/uv/pharm-quality/StructureDefinition/Extension-batch-retest-date-pq">
                  <valueDateTime value="2022-09-08"/>
                  <!-- #221 -->
               </extension>
               <extension url="manufacturingDate">
                  <valueDateTime value="2019-09-07"/>
                  <!-- #159 -->
               </extension>
               <extension url="batchQuantity"> <!-- #157 -->
                  <valueQuantity>
                     <value value="5"/>
                     <unit value="kg"/>
                     <!-- #158 -->
                  </valueQuantity>
               </extension>
               <extension url="http://hl7.org/fhir/uv/pharm-quality/StructureDefinition/Extension-actual-yield-pq">
                  <valueQuantity>
                     <value value="4.8"/>
                     <unit value="kg"/>
                  </valueQuantity>
               </extension>
               <extension url="batchUtilization"><!-- #161 -->
                  <valueCodeableConcept>
                     <coding>
                        <system value="http://temp.hl7.org/fhir/us/pq-cmc/CodeSystem/pqcmc-batch-utilization-terminology"/>
                        <code value="C133991"/>
                        <display value="Development"/>
                     </coding>
                  </valueCodeableConcept>
               </extension>
               <extension url="assignedManufacturer"> <!-- #160 -->
                  <valueReference>
                            <!--Organization/organization-drug-pq-ex1-->
                     <reference value="Organization/49d2f0c0-4b28-9271-8aaf-2996a8b9739c"/>
                  </valueReference>
               </extension>
            </extension>
            <identifier>
               <value value="CAT3"/>
               <!-- #155 -->
            </identifier>
            <instance value="true"/>
            <code>
               <reference>
                        <!--SubstanceDefinition/substancedefinition-component-substance-drug-pq-ex1-->
                  <reference value="SubstanceDefinition/57a9af63-315d-1585-a261-0e337b289390"/>
               </reference>
            </code>
         </Substance>
      </resource>
   </entry>
</Bundle>
