<?xml version="1.0" encoding="UTF-8"?>
<!-- Product Manufacturing -->
<!-- Based on file Accumulus FHIR Product Example - Manufacturing, posted 07-11-2023 -->
<!-- For this example, changed <system value="http://unitsofmeasure.org"/> to <system value="http://dummy.unitsofmeasure.org"/>-->
<Bundle xmlns="http://hl7.org/fhir">
   <id value="bundle-product-manufacturing-dxpq-ex1"/>
   <!--   <id value="product-manufacturing"/>-->
   <meta>
        <!--profile value="http://accumulus.org/fhir/dx-cmc/manufacturing"/-->
      <profile value="http://hl7.org/fhir/uv/pharm-quality/StructureDefinition/Bundle-product-manufacturing-dxpq"/>
   </meta>
   <type value="collection"/>
   <entry>
      <fullUrl value="urn:uuid:bf6b038b-1334-3dd4-a552-65c169e2265a"/>
      <!--      <fullUrl value="urn:uuid:bf6b038b-1334-3dd4-a552-65c169e2265a"/>-->
      <resource>
         <PlanDefinition>
            <!--manufacturingProcess-unlinked-->
            <id value="bf6b038b-1334-3dd4-a552-65c169e2265a"/>
            <meta>
               <profile value="http://hl7.org/fhir/uv/pharm-quality/StructureDefinition/PlanDefinition-dxpq"/>
            </meta>
            <extension url="http://hl7.org/fhir/uv/pharm-quality/StructureDefinition/Extension-plan-document-reference-dxpq">
               <valueReference>
                        <!-- Process flow diagram -->
                        <!-- or could be a Binary -->
                        <!-- #84 -->
                  <!--DocumentReference/documentreference-process-flow-diagram-dxpq-ex1-->
                  <reference value="DocumentReference/74d4c070-6596-8252-8ad9-afa515a41feb"/>
               </valueReference>
            </extension>
            <extension url="http://hl7.org/fhir/uv/pharm-quality/StructureDefinition/Extension-history-of-process-dxpq">
               <!--            <extension url="http://accumulus.org/fhir/extension/historyOfProcess">-->
               <valueMarkdown value="This can be text about the history"/>
            </extension>
            <url value="http://example-server.com/fhir/PlanDefinition/bf6b038b-1334-3dd4-a552-65c169e2265a"/>
            <title value="Process 1.0"/>
            <type>
               <coding>
                  <system value="http://terminology.hl7.org/CodeSystem/plan-definition-type"/>
                  <code value="workflow-definition"/>
                  <display value="Workflow Definition"/>
               </coding>
               <coding>
                  <system value="http://accumulus.org/fhir/code/planType"/>
                  <code value="manufacturing-process"/>
                  <display value="Manufacturing Process"/>
               </coding>
            </type>
            <status value="active"/>
            <!-- #83 -->
            <subjectReference>
               <!--MedicinalProductDefinition/medicinalproductdefinition-drug-product-dxpq-ex1-->
               <reference value="MedicinalProductDefinition/a0694a7a-aafa-4cbe-8135-c788a9a4d3d5"/>
            </subjectReference>
            <description value="Narrative description of manufacturing process (5)"/>
            <!-- #85 -->
            <goal id="goal-control-pH">
               <category>
                  <coding>
                     <system value="http://accumulus.org/fhir/code/testCategory"/>
                     <code value="C123456"/>
                     <display value="Physical Property"/>
                  </coding>
               </category>
               <description>
                  <text value="Controls - pH"/>
                  <!-- this is mandatory, even though we don't really want it -->
               </description>
               <priority>
                  <coding>
                     <system value="http://accumulus.org/fhir/code/goalPriority"/>
                     <code value="critical"/>
                     <display value="Critical"/>
                  </coding>
               </priority>
               <target>
                  <measure>
                     <coding>
                        <system value="http://dummy.loinc.org"/>
                        <code value="PH"/>
                        <display value="pH Level"/>
                     </coding>
                     <text value="pH must be in range 6.9 to 7.1"/>
                  </measure>
                  <!--detailString value="can also be a string"-->
                  <detailRange>
                     <low>
                        <value value="6.9"/>
                        <unit value="pH"/>
                     </low>
                     <high>
                        <value value="7.1"/>
                        <unit value="pH"/>
                     </high>
                  </detailRange>
               </target>
            </goal>
            <goal id="goal-control-water-content">
               <category>
                  <coding>
                     <system value="http://accumulus.org/fhir/code/testCategory"/>
                     <code value="C123456"/>
                     <display value="Physical Property"/>
                  </coding>
               </category>
               <description>
                  <text value="Controls - Water Content"/>
                  <!-- this is mandatory, even though we don't really want it -->
               </description>
               <priority>
                  <coding>
                     <system value="http://accumulus.org/fhir/code/goalPriority"/>
                     <code value="critical"/>
                     <display value="Critical"/>
                  </coding>
               </priority>
               <target>
                  <measure>
                     <coding>
                        <system value="http://dummy.loinc.org"/>
                        <code value="WaterContent"/>
                        <display value="Water content"/>
                     </coding>
                     <text value="Under 2%"/>
                  </measure>
                  <!--detailString value="can also be a string"-->
                  <detailRange>
                     <high>
                        <value value="2"/>
                        <unit value="%"/>
                     </high>
                  </detailRange>
               </target>
            </goal>
            <goal id="goal-control-particle-size">
               <category>
                  <coding>
                     <system value="http://accumulus.org/fhir/code/testCategory"/>
                     <code value="C123456"/>
                     <display value="Physical Property"/>
                  </coding>
               </category>
               <description>
                  <text value="Controls - Particle Size"/>
               </description>
               <priority>
                  <coding>
                     <system value="http://accumulus.org/fhir/code/goalPriority"/>
                     <code value="critical"/>
                     <display value="Critical"/>
                  </coding>
               </priority>
               <target>
                  <measure>
                     <coding>
                        <system value="http://dummy.loinc.org"/>
                        <code value="ParticleSize"/>
                        <display value="Particle Size"/>
                     </coding>
                     <text value="Under 200 microns"/>
                  </measure>
                  <!--detailString value="can also be a string"-->
                  <detailRange>
                     <high>
                        <value value="200"/>
                        <unit value="microns"/>
                     </high>
                  </detailRange>
               </target>
            </goal>
            <actor>
               <option>
                  <typeReference>
                     <!--DeviceDefinition/mixing-vessel-->
                     <reference value="DeviceDefinition/82a39a18-91cf-a29d-76c1-a9e8bad9494d"/>
                  </typeReference>
                  <role>
                     <coding>
                        <system value="http://accumulus.org/fhir/code/equipmentClass"/>
                        <code value="mixing-vessel"/>
                        <display value="Mixing Vessel"/>
                     </coding>
                  </role>
               </option>
            </actor>
            <actor>
               <option>
                  <typeReference>
                     <!--DeviceDefinition/receiving-tank-->
                     <reference value="DeviceDefinition/82a39a18-91cf-b29d-76c1-a9e8bad9494d"/>
                  </typeReference>
                  <role>
                     <coding>
                        <system value="http://accumulus.org/fhir/code/equipmentClass"/>
                        <code value="receiving-vessel"/>
                        <display value="Receiving Vessel"/>
                     </coding>
                  </role>
               </option>
            </actor>
            <!-- outer action is the whole thing, if needed -->
            <!-- step 1 mixing -->
            <action>
                        <!--extension url="http://accumulus.org/fhir/extension/processStepScale"-->
               <extension url="http://hl7.org/fhir/uv/pharm-quality/StructureDefinition/Extension-process-step-scale-dxpq">
                  <valueCoding>
                     <system value="http://accumulus.org/fhir/code/manufacturingStepScale"/>
                     <code value="ABCD"/>
                     <display value="Production Scale"/>
                  </valueCoding>
               </extension>
               <extension url="http://hl7.org/fhir/uv/pharm-quality/StructureDefinition/Extension-process-parameters-dxpq">
                  <extension url="parameter">
                     <valueCodeableConcept>
                        <coding>
                           <system value="http://accumulus.org/fhir/code/processParameter"/>
                           <code value="CAPACITY"/>
                           <display value="Capacity"/>
                        </coding>
                     </valueCodeableConcept>
                  </extension>
                  <extension url="value">
                     <valueQuantity>
                        <value value="750"/>
                        <unit value="litres"/>
                     </valueQuantity>
                  </extension>
               </extension>
               <extension url="http://hl7.org/fhir/uv/pharm-quality/StructureDefinition/Extension-process-parameters-dxpq">
                  <extension url="parameter">
                     <valueCodeableConcept>
                        <coding>
                           <system value="http://accumulus.org/fhir/code/processParameter"/>
                           <code value="TEMP-MAX"/>
                           <display value="Temperature"/>
                        </coding>
                     </valueCodeableConcept>
                  </extension>
                  <extension url="value">
                     <valueQuantity>
                        <value value="150"/>
                        <unit value="°C"/>
                        <system value="http://unitsofmeasure.org"/>
                        <code value="Cel"/>
                     </valueQuantity>
                  </extension>
               </extension>
               <prefix value="1"/>
               <description value="Mixing of ingredients"/>
               <code>
                  <coding>
                     <system value="http://accumulus.org/fhir/code/manufacturingStep"/>
                     <code value="1111"/>
                     <display value="Mixing of ingredients"/>
                  </coding>
               </code>
               <documentation>
                  <type value="specification-of"/>
                  <resourceReference>
                     <!--DocumentReference/DocumentReference-image-->
                     <reference value="DocumentReference/74d4c070-6596-8252-8ad9-afa515a41fee"/>
                  </resourceReference>
               </documentation>
               <goalId value="goal-control-pH"/>
               <!--goalId value="goal-control-temp"/-->
               <participant>
                  <typeReference>
                                <!-- this is new in R5 and is not in R4B -->
                     <!--DeviceDefinition/mixer-->
                     <reference value="DeviceDefinition/82a39a18-91cf-a19d-76c1-a9e8bad9494d"/>
                  </typeReference>
                  <role>
                     <coding>
                        <system value="http://accumulus.org/fhir/code/equipmentClass"/>
                        <code value="example"/>
                        <display value="Blender"/>
                     </coding>
                  </role>
               </participant>
               <participant>
                  <typeReference>
                     <extension url="http://hl7.org/fhir/uv/pharm-quality/StructureDefinition/Extension-manufacturing-participant-dxpq">
                        <valueReference>
                           <!--SubstanceDefinition/startingMaterial-->
                           <reference value="SubstanceDefinition/c458791f-7cb8-428e-83f7-8a205f821153"/>
                        </valueReference>
                     </extension>
                     <display value="starting material"/>
                     <!-- added to suppress IG warning about empty reference -->
                  </typeReference>
                  <role>
                     <coding>
                        <system value="http://accumulus.org/fhir/code/manufacturingParticipantRole"/>
                        <code value="example"/>
                        <display value="StartingMaterial"/>
                     </coding>
                  </role>
               </participant>
               <participant>
                  <typeReference>
                     <extension url="http://hl7.org/fhir/uv/pharm-quality/StructureDefinition/Extension-manufacturing-participant-dxpq">
                        <valueReference>
                           <!--SubstanceDefinition/processingMaterial-->
                           <reference value="SubstanceDefinition/c458791f-7cb8-428e-83f7-8a205f821155"/>
                        </valueReference>
                     </extension>
                     <display value="processing material"/>
                     <!-- added to suppress IG warning about empty reference -->
                  </typeReference>
                  <role>
                     <coding>
                        <system value="http://accumulus.org/fhir/code/manufacturingParticipantRole"/>
                        <code value="example"/>
                        <display value="ProcessingMaterial"/>
                     </coding>
                  </role>
               </participant>
               <participant>
                  <typeReference>
                     <extension url="http://hl7.org/fhir/uv/pharm-quality/StructureDefinition/Extension-manufacturing-participant-dxpq">
                        <valueReference>
                           <!--SubstanceDefinition/StelbatololAqueousSolution-->
                           <reference value="SubstanceDefinition/c458791f-7cb8-428e-83f7-8a205f821154"/>
                        </valueReference>
                     </extension>
                     <display value="resulting material"/>
                     <!-- added to suppress IG warning about empty reference -->
                  </typeReference>
                  <role>
                     <coding>
                        <system value="http://accumulus.org/fhir/code/manufacturingParticipantRole"/>
                        <code value="example"/>
                        <display value="ResultingMaterial"/>
                     </coding>
                  </role>
               </participant>
               <!--action>
                            <code>
                                <text value="Control"/>
                            </code>
                            <definitionCanonical value="ObservationDefinition/ControlPH"/>
                        </action>
                        <action>
                            <code>
                                <text value="Control"/>
                            </code>
                            <definitionCanonical value="ObservationDefinition/ControlTemperature"/>
                        </action-->
            </action>
            <!-- step 2 drying -->
            <action>
                        <!--extension url="http://accumulus.org/fhir/extension/processStepScale"-->
               <extension url="http://hl7.org/fhir/uv/pharm-quality/StructureDefinition/Extension-process-step-scale-dxpq">
                  <valueCoding>
                     <system value="http://accumulus.org/fhir/code/manufacturingStepScale"/>
                     <code value="ABCD"/>
                     <display value="Production Scale"/>
                  </valueCoding>
               </extension>
               <extension url="http://hl7.org/fhir/uv/pharm-quality/StructureDefinition/Extension-process-parameters-dxpq">
                  <extension url="parameter">
                     <valueCodeableConcept>
                        <coding>
                           <system value="http://accumulus.org/fhir/code/processParameter"/>
                           <!-- TODO LOINC? -->
                           <code value="TEMPMAX"/>
                           <display value="Maximum Temperature"/>
                        </coding>
                        <text value="Process temperature must be below 40°C"/>
                     </valueCodeableConcept>
                  </extension>
                  <extension url="value">  <!-- todo want a range here -->
                     <valueQuantity>
                        <value value="40"/>
                        <unit value="°C"/>
                        <system value="http://unitsofmeasure.org"/>
                        <code value="Cel"/>
                     </valueQuantity>
                  </extension>
               </extension>
               <prefix value="2"/>
               <description value="Drying using a heater"/>
               <code>
                  <coding>
                     <system value="http://accumulus.org/fhir/code/manufacturingStep"/>
                     <code value="12121"/>
                     <display value="Drying"/>
                  </coding>
                  <!--text value="Step 2 in the process - free text is possible"/-->
               </code>
               <documentation>
                  <type value="specification-of"/>
                  <resourceReference>
                     <!--DocumentReference/DocumentReference-image-->
                     <reference value="DocumentReference/74d4c070-6596-8252-8ad9-afa515a41fee"/>
                  </resourceReference>
               </documentation>
               <goalId value="goal-control-water-content"/>
               <participant>
                  <typeReference>
                                <!-- this is new in R5 and is not in R4B -->
                     <!--DeviceDefinition/dryer-->
                     <reference value="DeviceDefinition/82a39a18-91cf-a19d-76c1-a9e8bbd9494c"/>
                  </typeReference>
                  <role>
                     <coding>
                        <system value="http://accumulus.org/fhir/code/equipmentClass"/>
                        <code value="example"/>
                        <display value="Dryer"/>
                     </coding>
                  </role>
               </participant>
               <participant>
                  <typeReference>
                     <extension url="http://hl7.org/fhir/uv/pharm-quality/StructureDefinition/Extension-manufacturing-participant-dxpq">
                        <valueReference>
                           <!--SubstanceDefinition/StelbatololAqueousSolution-->
                           <reference value="SubstanceDefinition/c458791f-7cb8-428e-83f7-8a205f821154"/>
                        </valueReference>
                     </extension>
                     <display value="starting material"/>
                     <!-- added to suppress IG warning about empty reference -->
                  </typeReference>
                  <role>
                     <coding>
                        <system value="http://accumulus.org/fhir/code/manufacturingParticipantRole"/>
                        <code value="example"/>
                        <display value="StartingMaterial"/>
                     </coding>
                  </role>
               </participant>
               <participant>
                  <typeReference>
                     <extension url="http://hl7.org/fhir/uv/pharm-quality/StructureDefinition/Extension-manufacturing-participant-dxpq">
                        <valueReference>
                           <!--SubstanceDefinition/StelbatololGranules-->
                           <reference value="SubstanceDefinition/c458791f-7cb8-428e-83f7-8a205f821113"/>
                        </valueReference>
                     </extension>
                     <display value="resulting material"/>
                     <!-- added to suppress IG warning about empty reference -->
                  </typeReference>
                  <role>
                     <coding>
                        <system value="http://accumulus.org/fhir/code/manufacturingParticipantRole"/>
                        <code value="example"/>
                        <display value="ResultingMaterial"/>
                     </coding>
                  </role>
               </participant>
            </action>
            <!-- step 3 particle size -->
            <action>
                        <!--extension url="http://accumulus.org/fhir/extension/processStepScale"-->
               <extension url="http://hl7.org/fhir/uv/pharm-quality/StructureDefinition/Extension-process-step-scale-dxpq">
                  <valueCoding>
                     <system value="http://accumulus.org/fhir/code/manufacturingStepScale"/>
                     <code value="ABCD"/>
                     <display value="Production Scale"/>
                  </valueCoding>
               </extension>
               <extension url="http://hl7.org/fhir/uv/pharm-quality/StructureDefinition/Extension-process-parameters-dxpq">
                  <extension url="parameter">
                     <valueCodeableConcept>
                        <coding>
                           <system value="http://accumulus.org/fhir/code/processParameter"/>
                           <code value="ROTATIONSPEED"/>
                           <display value="Rotational Speed"/>
                        </coding>
                     </valueCodeableConcept>
                  </extension>
                  <extension url="value">
                     <valueQuantity>
                        <value value="2500"/>
                        <unit value="rpm"/>
                     </valueQuantity>
                  </extension>
               </extension>
               <prefix value="3"/>
               <description value="Particle Size Reduction by using a rotating impeller"/>
               <code>
                  <coding>
                     <system value="http://accumulus.org/fhir/code/manufacturingStep"/>
                     <code value="2222"/>
                     <display value="Particle Size Reduction"/>
                  </coding>
                  <!--text value="Step 2 in the process - free text is possible"/-->
               </code>
               <documentation>
                  <type value="specification-of"/>
                  <resourceReference>
                     <!--DocumentReference/DocumentReference-image-->
                     <reference value="DocumentReference/74d4c070-6596-8252-8ad9-afa515a41fee"/>
                  </resourceReference>
               </documentation>
               <goalId value="goal-control-particle-size"/>
               <participant>
                  <typeReference>
                                <!-- this is new in R5 and is not in R4B -->
                     <!--DeviceDefinition/devicedefinition-dxpq-ex1-->
                     <reference value="DeviceDefinition/82a39a18-91cf-a19d-76c1-a9e8bad9494c"/>
                  </typeReference>
                  <role>
                     <coding>
                        <system value="http://accumulus.org/fhir/code/equipmentClass"/>
                        <code value="example"/>
                        <!-- #88 Equipment class -->
                        <display value="Compression Milling"/>
                     </coding>
                  </role>
               </participant>
               <participant>
                  <typeReference>
                     <extension url="http://hl7.org/fhir/uv/pharm-quality/StructureDefinition/Extension-manufacturing-participant-dxpq">
                        <valueReference>
                           <!--SubstanceDefinition/StelbatololGranules-->
                           <reference value="SubstanceDefinition/c458791f-7cb8-428e-83f7-8a205f821113"/>
                        </valueReference>
                     </extension>
                     <display value="starting material"/>
                     <!-- added to suppress IG warning about empty reference -->
                  </typeReference>
                  <role>
                     <coding>
                        <system value="http://accumulus.org/fhir/code/manufacturingParticipantRole"/>
                        <code value="example"/>
                        <display value="StartingMaterial"/>
                     </coding>
                  </role>
               </participant>
               <participant>
                  <typeReference>
                     <extension url="http://hl7.org/fhir/uv/pharm-quality/StructureDefinition/Extension-manufacturing-participant-dxpq">
                        <valueReference>
                           <!--SubstanceDefinition/Stelbatolol-->
                           <reference value="SubstanceDefinition/c458791f-7cb8-428e-83f7-8a205f821152"/>
                        </valueReference>
                     </extension>
                     <display value="resulting material"/>
                     <!-- added to suppress IG warning about empty reference -->
                  </typeReference>
                  <role>
                     <coding>
                        <system value="http://accumulus.org/fhir/code/manufacturingParticipantRole"/>
                        <code value="example"/>
                        <display value="ResultingMaterial"/>
                     </coding>
                  </role>
               </participant>
            </action>
         </PlanDefinition>
      </resource>
   </entry>
   <!-- using goal for this now -->
   <!--entry>
        <fullUrl value="urn:uuid:a3d4d23a-800a-684a-6a47-fcfe44e06042"/>
        <resource>
            <ObservationDefinition>
                <id value="ControlPH"/>
                <title value="pH"/>
                <status value="active"/>
                <category>
                    <coding>
                        <system value="http://accumulus.org/fhir/code/controlCriticality"/>
                        <code value="critical"/>
                        <display value="Critical"/>
                    </coding>
                </category>
                <category>
                    <coding>
                        <system value="http://accumulus.org/fhir/code/testCategory"/>
                        <code value="C123456"/>
                        <display value="Physical Property"/>
                    </coding>
                </category>
                <code>
                    <coding> 
                        <system value="http://dummy.loinc.org"/>
                        <code value="PH"/>
                        <display value="pH Level"/>
                    </coding>
                    <text value="Long description of the acceptance criteria - pH must be in range 6.9 to 7.1"/>
                </code>
                <qualifiedValue>
                    <range>
                        <low>
                            <value value="6.9"/>
                            <unit value="pH"/> 
                        </low> 
                        <high>
                            <value value="7.1"/>
                            <unit value="pH"/>
                        </high>
                        
                    </range>
                </qualifiedValue>
            </ObservationDefinition>
        </resource>
    </entry>
    
    <entry>
        <fullUrl value="urn:uuid:a3d4d23a-800a-684a-6a47-fcfe44e06043"/>
        <resource>
            <ObservationDefinition>
                <id value="ControlTemperature"/>
                <title value="Temperature"/>
                <status value="active"/>
                <category>
                    <coding>
                        <system value="http://accumulus.org/fhir/code/controlCriticality"/>
                        <code value="noncritical"/>
                        <display value="Non Critical"/>
                    </coding>
                </category>
                <category>
                    <coding>
                        <system value="http://accumulus.org/fhir/code/testCategory"/>
                        <code value="C123456"/>
                        <display value="Physical Property"/>
                    </coding>
                </category>
                <code>
                    <coding> 
                        <system value="http://dummy.loinc.org"/>
                        <code value="TEMP"/>
                        <display value="Temperature"/>
                    </coding>
                    <text value="Long description of the control value - Temperatuure must be below 150°C"/>
                </code>
                <qualifiedValue>
                    <range>
                        <high>
                            <value value="150"/>
                            <unit value="°C"/>
                            <system value="http://unitsofmeasure.org"/>
                            <code value="Cel"/>
                        </high>
                    </range>
                </qualifiedValue>
            </ObservationDefinition>
        </resource>
    </entry-->
   <!-- Section 5.2 - Unit Operation/Equipment Information -->
   <entry>
      <fullUrl value="urn:uuid:82a39a18-91cf-a19d-76c1-a9e8bad9494c"/>
      <resource>
         <DeviceDefinition>
            <!--devicedefinition-dxpq-ex1-->
            <id value="82a39a18-91cf-a19d-76c1-a9e8bad9494c"/>
            <deviceName>
               <name value="Rotating Impeller with 1.5mm screen"/>
               <!-- #89 Equiment subclass -->
               <type value="registered-name"/>
            </deviceName>
            <property>
               <type>
                  <coding>
                     <system value="http://accumulus.org/fhir/code/deviceProperty"/>
                     <code value="121212"/>
                     <!-- #90 Working capacity -->
                     <display value="Maximum Speed"/>
                  </coding>
               </type>
               <valueQuantity>
                  <value value="5000"/>
                  <unit value="RPM"/>
               </valueQuantity>
            </property>
         </DeviceDefinition>
      </resource>
   </entry>
   <entry>
      <fullUrl value="urn:uuid:82a39a18-91cf-a19d-76c1-a9e8bbd9494c"/>
      <resource>
         <DeviceDefinition>
            <!--dryer-->
            <id value="82a39a18-91cf-a19d-76c1-a9e8bbd9494c"/>
            <deviceName>
               <name value="Heated dryer"/>
               <!-- #89 Equiment subclass -->
               <type value="registered-name"/>
            </deviceName>
            <property>
               <type>
                  <coding>
                     <system value="http://accumulus.org/fhir/code/deviceProperty"/>
                     <code value="121212"/>
                     <display value="Power"/>
                  </coding>
               </type>
               <valueQuantity>
                  <value value="3"/>
                  <unit value="kW"/>
               </valueQuantity>
            </property>
         </DeviceDefinition>
      </resource>
   </entry>
   <entry>
      <fullUrl value="urn:uuid:82a39a18-91cf-a19d-76c1-a9e8bad9494d"/>
      <resource>
         <DeviceDefinition>
            <!--mixer-->
            <id value="82a39a18-91cf-a19d-76c1-a9e8bad9494d"/>
            <deviceName>
               <name value="Blender"/>
               <type value="registered-name"/>
            </deviceName>
            <property>
               <type>
                  <coding>
                     <system value="http://accumulus.org/fhir/code/deviceProperty"/>
                     <code value="121212"/>
                     <display value="Maximum capacity"/>
                  </coding>
               </type>
               <valueQuantity>
                  <value value="1000"/>
                  <unit value="litres"/>
               </valueQuantity>
            </property>
         </DeviceDefinition>
      </resource>
   </entry>
   <!-- Section 5.1 - Manufacturing Process Overview - Process Flow Diagram -->
   <entry>
      <fullUrl value="urn:uuid:74d4c070-6596-8252-8ad9-afa515a41feb"/>
      <resource>
            <!-- #84 -->
         <DocumentReference>
            <!--documentreference-process-flow-diagram-dxpq-ex1-->
            <id value="74d4c070-6596-8252-8ad9-afa515a41feb"/>
            <identifier>
               <system value="http://accumulus.org/fhir/identifier/document"/>
               <value value="FLOW-001"/>
            </identifier>
            <status value="current"/>
            <type>
               <coding>
                  <system value="http://accumulus.org/fhir/code/diagramType"/>
                  <code value="11111111111"/>
                  <display value="ProcessFlowDiagram"/>
               </coding>
            </type>
            <content>
               <attachment>
                  <contentType value="image/x-png"/>
                  <data value=""/>
               </attachment>
            </content>
         </DocumentReference>
      </resource>
   </entry>
   <!-- Section 5.1 - Manufacturing Process Overview - Process Flow Diagram -->
   <entry>
      <fullUrl value="urn:uuid:74d4c070-6596-8252-8ad9-afa515a41fee"/>
      <resource>
            <!-- #84 -->
         <DocumentReference>
            <!--DocumentReference-image-->
            <id value="74d4c070-6596-8252-8ad9-afa515a41fee"/>
            <status value="current"/>
            <content>
               <attachment>
                  <url value="https://www.accumulus.org/wp-content/uploads/2022/05/Accumulus_Logo_horizontal.png"/>
               </attachment>
            </content>
         </DocumentReference>
      </resource>
   </entry>
   <!-- MedicinalProductDefinition - the main resource in any product scenario -->
   <entry>
      <fullUrl value="urn:uuid:a0694a7a-aafa-4cbe-8135-c788a9a4d3d5"/>
      <resource>
            <!-- Section 1.1 - DP Identification -->
         <MedicinalProductDefinition>
            <!--medicinalproductdefinition-drug-product-dxpq-ex1-->
            <id value="a0694a7a-aafa-4cbe-8135-c788a9a4d3d5"/>
            <description value="Textual description of the product"/>
            <combinedPharmaceuticalDoseForm>
               <coding>
                  <system value="https://spor.ema.europa.eu/v1/lists/200000000004"/>
                  <code value="100000073667"/>
                  <display value="Gastro-resistant tablet"/>
               </coding>
            </combinedPharmaceuticalDoseForm>
            <route>
               <coding>
                  <system value="https://spor.ema.europa.eu/v1/lists/100000073345"/>
                  <code value="100000073619"/>
                  <display value="Oral use"/>
               </coding>
            </route>
            <name>
               <productName value="Stelbat Tablets, 20mg"/>
               <type>
                  <coding>
                     <system value="http://accumulus.org/fhir/code/productNameType"/>
                     <code value="1234"/>
                     <display value="Proprietary"/>
                  </coding>
               </type>
               <part>
                  <part value="20mg"/>
                  <type>
                     <coding>
                        <system value="http://hl7.org/fhir/medicinal-product-name-part-type"/>
                        <code value="StrengthPart"/>
                        <display value="Strength part"/>
                     </coding>
                  </type>
               </part>
            </name>
         </MedicinalProductDefinition>
      </resource>
   </entry>
   <entry>
      <fullUrl value="urn:uuid:a0694a7a-aafa-4cbe-8135-c788a9a4d3d6"/>
      <resource>
         <Ingredient>
            <!--productIngredient-->
            <id value="a0694a7a-aafa-4cbe-8135-c788a9a4d3d6"/>
            <status value="active"/>
            <for>
               <!--MedicinalProductDefinition/medicinalproductdefinition-drug-product-dxpq-ex1-->
               <reference value="MedicinalProductDefinition/a0694a7a-aafa-4cbe-8135-c788a9a4d3d5"/>
            </for>
            <role>
               <coding>
                  <system value="http://hl7.org/fhir/ingredient-role"/>
                  <code value="100000072072"/>
                  <display value="Active"/>
               </coding>
            </role>
            <substance>
               <code>
                  <reference>
                     <!--SubstanceDefinition/Stelbatolol-->
                     <reference value="SubstanceDefinition/c458791f-7cb8-428e-83f7-8a205f821152"/>
                  </reference>
               </code>
            </substance>
         </Ingredient>
      </resource>
   </entry>
   <entry>
      <fullUrl value="urn:uuid:c458791f-7cb8-428e-83f7-8a205f821152"/>
      <resource>
         <SubstanceDefinition>
            <!--Stelbatolol-->
            <id value="c458791f-7cb8-428e-83f7-8a205f821152"/>
            <manufacturer>
               <!--Organization/substance-manufacturer-->
               <reference value="Organization/9fe98cfa-9245-8313-0fc5-d15e613b5d6d"/>
            </manufacturer>
            <name>
               <name value="Stelbatolol"/>
               <!-- #4 -->
            </name>
         </SubstanceDefinition>
      </resource>
   </entry>
   <entry>
      <fullUrl value="urn:uuid:c458791f-7cb8-428e-83f7-8a205f821113"/>
      <resource>
         <SubstanceDefinition>
            <!--StelbatololGranules-->
            <id value="c458791f-7cb8-428e-83f7-8a205f821113"/>
            <meta>
               <profile value="http://hl7.org/fhir/uv/pharm-quality/StructureDefinition/SubstanceDefinition-component-substance-dxpq"/>
            </meta>
            <name>
               <name value="Stelbatolol Granules"/>
               <!-- #4 -->
            </name>
         </SubstanceDefinition>
      </resource>
   </entry>
   <entry>
      <fullUrl value="urn:uuid:9fe98cfa-9245-8313-0fc5-d15e613b5d6d"/>
      <resource>
         <Organization>
            <!--substance-manufacturer-->
            <id value="9fe98cfa-9245-8313-0fc5-d15e613b5d6d"/>
            <identifier>
					<!-- FDA establishment identifier -->
               <system value="urn:oid:2.16.840.1.113883.4.82"/>
               <value value="3003040516"/>
            </identifier>
            <name value="AAA Molybdenum Products, Inc."/>
            <contact>
               <address>
                  <line value="7233 W 116th Pl"/>
                  <line value="Ste C"/>
                  <city value="Broomfield"/>
                  <state value="Colorado"/>
                  <postalCode value="80020"/>
                  <country value="USA"/>
               </address>
            </contact>
         </Organization>
      </resource>
   </entry>
   <entry>
      <fullUrl value="urn:uuid:8d61736c-a6e3-8301-659f-17da402e012a"/>
      <resource>
         <Organization>
            <!--manufacturerProcessingMaterial-->
            <id value="8d61736c-a6e3-8301-659f-17da402e012a"/>
            <identifier>
                    <!-- FDA establishment identifier -->
               <system value="urn:oid:2.16.840.1.113883.4.82"/>
               <value value="3010027650"/>
            </identifier>
            <name value="AAA Pharmaceutical, Inc."/>
            <contact>
               <address>
                  <line value="681 Main Street"/>
                  <city value="Lumberton"/>
                  <state value="New Jersey"/>
                  <postalCode value="08048"/>
                  <country value="USA"/>
               </address>
            </contact>
         </Organization>
      </resource>
   </entry>
   <entry>
      <fullUrl value="urn:uuid:c458791f-7cb8-428e-83f7-8a205f821153"/>
      <resource>
         <SubstanceDefinition>
            <!--startingMaterial-->
            <id value="c458791f-7cb8-428e-83f7-8a205f821153"/>
            <manufacturer>
               <!--Organization/substance-manufacturer-->
               <reference value="Organization/9fe98cfa-9245-8313-0fc5-d15e613b5d6d"/>
            </manufacturer>
            <name>
               <name value="Stelbatosubstance"/>
            </name>
         </SubstanceDefinition>
      </resource>
   </entry>
   <entry>
      <fullUrl value="urn:uuid:c458791f-7cb8-428e-83f7-8a205f821154"/>
      <resource>
         <SubstanceDefinition>
            <!--StelbatololAqueousSolution-->
            <id value="c458791f-7cb8-428e-83f7-8a205f821154"/>
            <meta>
               <profile value="http://hl7.org/fhir/uv/pharm-quality/StructureDefinition/SubstanceDefinition-component-substance-dxpq"/>
            </meta>
            <name>
               <name value="Stelbatolol Aqueous Solution"/>
            </name>
         </SubstanceDefinition>
      </resource>
   </entry>
   <entry>
      <fullUrl value="urn:uuid:c458791f-7cb8-428e-83f7-8a205f821155"/>
      <resource>
         <SubstanceDefinition>
            <!--processingMaterial-->
            <id value="c458791f-7cb8-428e-83f7-8a205f821155"/>
            <manufacturer>
               <!--Organization/manufacturerProcessingMaterial-->
               <reference value="Organization/8d61736c-a6e3-8301-659f-17da402e012a"/>
            </manufacturer>
            <name>
               <name value="Processohol"/>
            </name>
         </SubstanceDefinition>
      </resource>
   </entry>
   <entry>
      <fullUrl value="urn:uuid:82a39a18-91cf-a29d-76c1-a9e8bad9494d"/>
      <resource>
         <DeviceDefinition>
            <!--mixing-vessel-->
            <id value="82a39a18-91cf-a29d-76c1-a9e8bad9494d"/>
            <deviceName>
               <name value="Mixing Vessel"/>
               <type value="registered-name"/>
            </deviceName>
            <classification>
               <type>
                  <coding>
                     <system value="http://accumulus.org/fhir/code/deviceType"/>
                     <code value="mixing-vessel"/>
                     <display value="Mixing Vessel"/>
                  </coding>
               </type>
            </classification>
            <property>
               <type>
                  <coding>
                     <system value="http://accumulus.org/fhir/code/deviceProperty"/>
                     <code value="capacity"/>
                     <display value="Capacity"/>
                     <!-- seems a little different to "maximum capacity -->
                  </coding>
               </type>
               <valueQuantity>
                  <value value="1000"/>
                  <unit value="litres"/>
               </valueQuantity>
            </property>
         </DeviceDefinition>
      </resource>
   </entry>
   <entry>
      <fullUrl value="urn:uuid:82a39a18-91cf-b29d-76c1-a9e8bad9494d"/>
      <resource>
         <DeviceDefinition>
            <!--receiving-tank-->
            <id value="82a39a18-91cf-b29d-76c1-a9e8bad9494d"/>
            <deviceName>
               <name value="Receiving Tank"/>
               <type value="registered-name"/>
            </deviceName>
            <classification>
               <type>
                  <coding>
                     <system value="http://accumulus.org/fhir/code/deviceType"/>
                     <code value="receiving-tank"/>
                     <display value="Receiving Tank"/>
                  </coding>
               </type>
            </classification>
            <property>
               <type>
                  <coding>
                     <system value="http://accumulus.org/fhir/code/deviceProperty"/>
                     <code value="capacity"/>
                     <display value="Capacity"/>
                     <!-- seems a little different to "maximum capacity -->
                  </coding>
               </type>
               <valueQuantity>
                  <value value="1200"/>
                  <unit value="litres"/>
               </valueQuantity>
            </property>
         </DeviceDefinition>
      </resource>
   </entry>
</Bundle>
