<?xml version="1.0" encoding="UTF-8"?>
<!-- Product Stability Study -->
<Bundle xmlns="http://hl7.org/fhir">
   <id value="bundle-drug-stability-pq-ex1-prod"/>
   <!--   <id value="product-stability-study"/>-->
   <meta>
        <!--profile value="http://accumulus.org/fhir/dx-cmc/stability"/-->
      <profile value="http://hl7.org/fhir/uv/pharm-quality/StructureDefinition/Bundle-drug-stability-pq"/>
   </meta>
   <type value="collection"/>
   <!-- Section 11 - Stability Study - Results -->
   <entry>
      <fullUrl value="urn:uuid:6f4a3311-92c5-2b4a-533e-76341e414c63"/>
      <resource>
         <DiagnosticReport>
                <!-- <id value="studyResultsReport"/>-->
                <!--DiagnosticReport-analysis-drug-pq-stability-prod-->
            <id value="6f4a3311-92c5-2b4a-533e-76341e414c63"/>
            <meta>
               <profile value="http://hl7.org/fhir/uv/pharm-quality/StructureDefinition/DiagnosticReport-analysis-drug-pq"/>
            </meta>
            <extension url="http://hl7.org/fhir/StructureDefinition/workflow-triggeredBy">
               <valueReference>
                        <!--PlanDefinition/plandefinition-drug-pq-ex5-stability-study-protocol-->
                  <reference value="PlanDefinition/c96cb248-1408-79fc-1f47-b17a6b2e4b54"/>
               </valueReference>
            </extension>
            <extension url="http://hl7.org/fhir/uv/pharm-quality/StructureDefinition/Extension-statistical-model-pq">
               <valueCodeableConcept>
                         <!-- #223 -->
                         <!-- Want to use studyDesign, but problem is that this is CodeableConcept, which allows text. However when you use text, you then
                            have no place to put a context. Ideally this would be a code/code pair.
                            Code says "statistical model", code (or text) then says what it is -->
                  <text value="information about statistical model utilized to interpret stability study results"/>
               </valueCodeableConcept>
            </extension>
            <extension url="http://hl7.org/fhir/uv/pharm-quality/StructureDefinition/Extension-container-orientation-pq">
               <valueCodeableConcept>
                         <!-- #227 -->
                         <!-- Considered ObservatioDefinition.usageContext -->
                  <text value="Horizontal"/>
               </valueCodeableConcept>
            </extension>
            <identifier>
               <system value="https://eudract.europa.eu/example/identifier"/>
               <value value="ABC1234"/>
            </identifier>
            <status value="final"/>
            <code>
               <coding>
                  <system value="http://accumulus.org/fhir/code/reportType"/>
                  <code value="111"/>
                  <display value="Stability Study Report - 18 months"/>
               </coding>
            </code>
            <effectiveDateTime value="2020-12"> <!-- start of stability test -->
               <extension url="http://hl7.org/fhir/uv/pharm-quality/StructureDefinition/Extension-time-point-description-pq">
                  <valueCodeableConcept>
                     <coding>
                        <system value="http://accumulus.org/fhir/code/timePointDescription"/>
                        <code value="222"/>
                        <display value="Delayed Start Code"/>
                     </coding>
                     <text value="Refrigerated delayed testing"/>
                  </valueCodeableConcept>
               </extension>
            </effectiveDateTime>
            <performer>
                    <!--Organization/tester-->
               <reference value="Organization/e3d2bc19-2f10-2b4d-1741-e4135fe612a9"/>
            </performer>
            <result>
                    
                    <!--Observation/observation-test-result-longterm25c-initial-1-->
               <reference value="Observation/6fabbf78-9678-8030-485f-b149956308d5"/>
            </result>
            <result>
                    <!--Observation/LongTerm25C-initial-2-->
               <reference value="Observation/74535cc6-5232-5ab5-81cf-167a480795e5"/>
            </result>
            <result>
                    <!--Observation/LongTerm25C-initial-3-->
               <reference value="Observation/8bf75da1-9221-66fe-6725-c64cb45a57e6"/>
            </result>
            <!-- skipping middle months -->
            <result>
                    <!--Observation/LongTerm25C-18m-1-->
               <reference value="Observation/e803ad6d-0cb3-87dd-6af1-4b88c654a47c"/>
            </result>
            <result>
                    <!--Observation/LongTerm25C-18m-2-->
               <reference value="Observation/3519f84a-2889-90a0-a6b7-ff2f1be66a73"/>
            </result>
            <result>
                    <!--Observation/LongTerm25C-18m-3-->
               <reference value="Observation/2ef362f1-0b65-3578-7f06-fbd74a24694a"/>
            </result>
            <!-- Accelerated -->
            <result>
                    <!--Observation/Accelerated40C-3-1-->
               <reference value="Observation/72e0640b-094b-909e-5268-3dee92af4bbd"/>
            </result>
            <!-- skipping rest of Accelerated -->
            <conclusion value="The samples have been assessed and the conclusion is that the shelf life can be 18 months."/>
         </DiagnosticReport>
      </resource>
   </entry>
   <entry>
      <fullUrl value="urn:uuid:c96cb248-1408-79fc-1f47-b17a6b2e4b54"/>
      <resource>
            
            <!-- Section 11 - Stability Study - Protocol -->
         <PlanDefinition>
                <!--<id value="stabilityStudyProtocol"/>-->
                <!--id value="plandefinition-stability-study-protocol-pq-ex1"/-->
                <!--plandefinition-drug-pq-ex5-stability-study-protocol-->
            <id value="c96cb248-1408-79fc-1f47-b17a6b2e4b54"/>
            <meta>
               <profile value="http://hl7.org/fhir/uv/pharm-quality/StructureDefinition/PlanDefinition-drug-pq"/>
            </meta>
            <!--http://example-server.com/fhir/PlanDefinition/c96cb248-1408-79fc-1f47-b17a6b2e4b54-->
            <url value="http://example-server.com/fhir/PlanDefinition/c96cb248-1408-79fc-1f47-b17a6b2e4b54"/>
            <title value="Stability Monitoring Program"/>
            <!--            Added type (8/22/2023)-->
            <type>
               <coding>
                  <system value="http://example.org/fhir/code/planType"/>
                  <code value="1244588"/>
                  <display value="Stability Study Protocol"/>
               </coding>
            </type>
            <status value="active"/>
            <subjectReference>
                    <!--MedicinalProductDefinition/medicinalproductdefinition-drug-product-pq-ex1-->
               <reference value="MedicinalProductDefinition/a0694a7a-aafa-4cbe-8135-c788a9a4d3d5"/>
            </subjectReference>
            <description value="Narrative description of Stability Study"/>
            <action> <!-- this is then entire thing -->
               <title value="Stability Test Protocol for Long-term and Accelerated Storage of Stelbat Tablets, 20 mg"/>
               <action> <!-- TODO add codes here for the different levels? -->
                  <title value="Long-Term"/>
                  <description value="25°C/60% RH"/>
                  <action> <!-- 0 months -->
                     <title value="Initial"/>
                     <timingTiming>
                        <repeat>
                           <boundsRange>
                              <low>
                                 <value value="0"/>
                                 <unit value="months"/>
                                 <system value="http://unitsofmeasure.org"/>
                                 <code value="mo"/>
                              </low>
                              <high>
                                 <value value="0"/>
                                 <unit value="months"/>
                                 <system value="http://unitsofmeasure.org"/>
                                 <code value="mo"/>
                              </high>
                           </boundsRange>
                           <frequency value="1"/>
                        </repeat>
                     </timingTiming>
                     <action> <!-- the categories to do at this step -->
                        <title value="XYZ"/>
                        <!-- Long term -->
                        <!--ActivityDefinition/activitydefinition-test-longterm25c-25xyz-initial-->
                        <definitionCanonical value="ActivityDefinition/4bfe1ee8-91ed-5c1b-3045-c749bb9d1d90"/>
                     </action>
                  </action>
                  <!-- 3 months -->
                  <!-- todo put comments back in? -->
                  <action>
                     <title value="3"/>
                     <timingTiming>
                        <repeat>
                           <boundsRange>
                              <low>
                                 <value value="3"/>
                                 <unit value="months"/>
                                 <system value="http://unitsofmeasure.org"/>
                                 <code value="mo"/>
                              </low>
                              <high>
                                 <value value="3"/>
                                 <unit value="months"/>
                                 <system value="http://unitsofmeasure.org"/>
                                 <code value="mo"/>
                              </high>
                           </boundsRange>
                           <frequency value="1"/>
                        </repeat>
                     </timingTiming>
                     <action>
                        <title value="X"/>
                        <!--ActivityDefinition/ActivityDefinition-test-drug-pq-ex1-->
                        <definitionCanonical value="ActivityDefinition/610ca25c-6126-6117-8d4d-9458ccc33ce2"/>
                     </action>
                  </action>
                  <!-- 6 months -->
                  <action>
                     <title value="6"/>
                     <timingTiming>
                        <repeat>
                           <boundsRange>
                              <low>
                                 <value value="6"/>
                                 <unit value="months"/>
                                 <system value="http://unitsofmeasure.org"/>
                                 <code value="mo"/>
                              </low>
                              <high>
                                 <value value="6"/>
                                 <unit value="months"/>
                                 <system value="http://unitsofmeasure.org"/>
                                 <code value="mo"/>
                              </high>
                           </boundsRange>
                           <frequency value="1"/>
                        </repeat>
                     </timingTiming>
                     <action>
                        <title value="X"/>
                        <!--ActivityDefinition/activityLongTerm25X-6-->
                        <definitionCanonical value="ActivityDefinition/d99c1b63-2d32-4887-8157-525cc8ae4732"/>
                     </action>
                  </action>
                  <!-- 9 months -->
                  <action>
                     <title value="9"/>
                     <timingTiming>
                        <repeat>
                           <boundsRange>
                              <low>
                                 <value value="9"/>
                                 <unit value="months"/>
                                 <system value="http://unitsofmeasure.org"/>
                                 <code value="mo"/>
                              </low>
                              <high>
                                 <value value="9"/>
                                 <unit value="months"/>
                                 <system value="http://unitsofmeasure.org"/>
                                 <code value="mo"/>
                              </high>
                           </boundsRange>
                           <frequency value="1"/>
                        </repeat>
                     </timingTiming>
                     <action>
                        <title value="X"/>
                        <!--ActivityDefinition/activityLongTerm25X-9-->
                        <definitionCanonical value="ActivityDefinition/38704856-0acf-95f0-000f-a933b6862fa0"/>
                     </action>
                  </action>
                  <!-- 12 months -->
                  <action>
                     <title value="12"/>
                     <timingTiming>
                        <repeat>
                           <boundsRange>
                              <low>
                                 <value value="12"/>
                                 <unit value="months"/>
                                 <system value="http://unitsofmeasure.org"/>
                                 <code value="mo"/>
                              </low>
                              <high>
                                 <value value="12"/>
                                 <unit value="months"/>
                                 <system value="http://unitsofmeasure.org"/>
                                 <code value="mo"/>
                              </high>
                           </boundsRange>
                           <frequency value="1"/>
                        </repeat>
                     </timingTiming>
                     <action>
                        <title value="XY"/>
                        <!--ActivityDefinition/activityLongTerm25XY-12-->
                        <definitionCanonical value="ActivityDefinition/f19a68b0-4ba1-7288-635e-12783035935b"/>
                     </action>
                  </action>
                  <!-- 18 months -->
                  <action>
                     <title value="18"/>
                     <timingTiming>
                        <repeat>
                           <boundsRange>
                              <low>
                                 <value value="18"/>
                                 <unit value="months"/>
                                 <system value="http://unitsofmeasure.org"/>
                                 <code value="mo"/>
                              </low>
                              <high>
                                 <value value="18"/>
                                 <unit value="months"/>
                                 <system value="http://unitsofmeasure.org"/>
                                 <code value="mo"/>
                              </high>
                           </boundsRange>
                           <frequency value="1"/>
                        </repeat>
                     </timingTiming>
                     <action>
                        <title value="XY"/>
                        <!--ActivityDefinition/activityLongTerm25XY-18-->
                        <definitionCanonical value="ActivityDefinition/ce2df6ab-5087-435c-35cb-a84572e756a2"/>
                     </action>
                  </action>
                  <!-- 24 months -->
                  <action>
                     <title value="24"/>
                     <timingTiming>
                        <repeat>
                           <boundsRange>
                              <low>
                                 <value value="24"/>
                                 <unit value="months"/>
                                 <system value="http://unitsofmeasure.org"/>
                                 <code value="mo"/>
                              </low>
                              <high>
                                 <value value="24"/>
                                 <unit value="months"/>
                                 <system value="http://unitsofmeasure.org"/>
                                 <code value="mo"/>
                              </high>
                           </boundsRange>
                           <frequency value="1"/>
                        </repeat>
                     </timingTiming>
                     <action>
                        <title value="XY"/>
                        <!--ActivityDefinition/activityLongTerm25XY-24-->
                        <definitionCanonical value="ActivityDefinition/cf2df6ab-5087-435c-35cb-a84572e756a2"/>
                     </action>
                  </action>
               </action>
               <!-- end of long term -->
               <!-- 0 months is first one - but results for this are not needed, because and zero months is the same for both long term and accelerated -->
               <action>
                  <title value="Accelerated"/>
                  <description value="40°C/75% RH"/>
                  <action>
                     <title value="Initial"/>
                     <timingTiming>
                        <repeat>
                           <boundsRange>
                              <low>
                                 <value value="0"/>
                                 <unit value="months"/>
                                 <system value="http://unitsofmeasure.org"/>
                                 <code value="mo"/>
                              </low>
                              <high>
                                 <value value="0"/>
                                 <unit value="months"/>
                                 <system value="http://unitsofmeasure.org"/>
                                 <code value="mo"/>
                              </high>
                           </boundsRange>
                           <frequency value="1"/>
                        </repeat>
                     </timingTiming>
                     <action>
                        <title value="XYZ"/>
                        <!--ActivityDefinition/activityAccelerated40XYZ-Initial-->
                        <definitionCanonical value="ActivityDefinition/6b96124b-1a44-0b6b-6783-d6c49360230b"/>
                     </action>
                  </action>
                  <action>
                     <title value="3"/>
                     <timingTiming>
                        <repeat>
                           <boundsRange>
                              <low>
                                 <value value="3"/>
                                 <unit value="months"/>
                                 <system value="http://unitsofmeasure.org"/>
                                 <code value="mo"/>
                              </low>
                              <high>
                                 <value value="3"/>
                                 <unit value="months"/>
                                 <system value="http://unitsofmeasure.org"/>
                                 <code value="mo"/>
                              </high>
                           </boundsRange>
                           <frequency value="1"/>
                        </repeat>
                     </timingTiming>
                     <action>
                        <title value="X"/>
                        <!--ActivityDefinition/activityAccelerated40X-3-->
                        <definitionCanonical value="ActivityDefinition/096e3f32-798e-6792-76ad-4ea783521c50"/>
                     </action>
                  </action>
                  <action>
                     <title value="6"/>
                     <timingTiming>
                        <repeat>
                           <boundsRange>
                              <low>
                                 <value value="6"/>
                                 <unit value="months"/>
                                 <system value="http://unitsofmeasure.org"/>
                                 <code value="mo"/>
                              </low>
                              <high>
                                 <value value="6"/>
                                 <unit value="months"/>
                                 <system value="http://unitsofmeasure.org"/>
                                 <code value="mo"/>
                              </high>
                           </boundsRange>
                           <frequency value="1"/>
                        </repeat>
                     </timingTiming>
                     <action>
                        <title value="X"/>
                        <!--ActivityDefinition/activityAccelerated40X-6-->
                        <definitionCanonical value="ActivityDefinition/77f86b13-8193-3df7-8362-ab5e79ba541d"/>
                     </action>
                  </action>
                  <action>
                     <title value="9"/>
                     <timingTiming>
                        <repeat>
                           <boundsRange>
                              <low>
                                 <value value="9"/>
                                 <unit value="months"/>
                                 <system value="http://unitsofmeasure.org"/>
                                 <code value="mo"/>
                              </low>
                              <high>
                                 <value value="9"/>
                                 <unit value="months"/>
                                 <system value="http://unitsofmeasure.org"/>
                                 <code value="mo"/>
                              </high>
                           </boundsRange>
                           <frequency value="1"/>
                        </repeat>
                     </timingTiming>
                     <action>
                        <title value="-"/>
                     </action>
                  </action>
                  <action>
                     <title value="12"/>
                     <timingTiming>
                        <repeat>
                           <boundsRange>
                              <low>
                                 <value value="12"/>
                                 <unit value="months"/>
                                 <system value="http://unitsofmeasure.org"/>
                                 <code value="mo"/>
                              </low>
                              <high>
                                 <value value="12"/>
                                 <unit value="months"/>
                                 <system value="http://unitsofmeasure.org"/>
                                 <code value="mo"/>
                              </high>
                           </boundsRange>
                           <frequency value="1"/>
                        </repeat>
                     </timingTiming>
                     <action>
                        <title value="-"/>
                     </action>
                  </action>
                  <action>
                     <title value="18"/>
                     <timingTiming>
                        <repeat>
                           <boundsRange>
                              <low>
                                 <value value="18"/>
                                 <unit value="months"/>
                                 <system value="http://unitsofmeasure.org"/>
                                 <code value="mo"/>
                              </low>
                              <high>
                                 <value value="18"/>
                                 <unit value="months"/>
                                 <system value="http://unitsofmeasure.org"/>
                                 <code value="mo"/>
                              </high>
                           </boundsRange>
                           <frequency value="1"/>
                        </repeat>
                     </timingTiming>
                     <action>
                        <title value="-"/>
                     </action>
                  </action>
                  <action>
                     <title value="24"/>
                     <timingTiming>
                        <repeat>
                           <boundsRange>
                              <low>
                                 <value value="24"/>
                                 <unit value="months"/>
                                 <system value="http://unitsofmeasure.org"/>
                                 <code value="mo"/>
                              </low>
                              <high>
                                 <value value="24"/>
                                 <unit value="months"/>
                                 <system value="http://unitsofmeasure.org"/>
                                 <code value="mo"/>
                              </high>
                           </boundsRange>
                           <frequency value="1"/>
                        </repeat>
                     </timingTiming>
                     <action>
                        <title value="-"/>
                     </action>
                  </action>
               </action>
            </action>
            <!-- end of accelerated -->
         </PlanDefinition>
      </resource>
   </entry>
   <!-- Long term tests -->
   <entry>
      <fullUrl value="urn:uuid:3a0cde98-4a73-6d67-1dfc-08e3fc9646a2"/>
      <resource>
         <SpecimenDefinition>
                <!--<id value="specimenDefStoredAt25"/>-->
                <!--specimendefinition-stability-pq-ex1-->
            <id value="3a0cde98-4a73-6d67-1dfc-08e3fc9646a2"/>
            <meta>
               <profile value="http://hl7.org/fhir/uv/pharm-quality/StructureDefinition/SpecimenDefinition-drug-pq"/>
            </meta>
            <!--http://example-server.com/fhir/SpecimenDefinition/3a0cde98-4a73-6d67-1dfc-08e3fc9646a2-->
            <url value="http://example-server.com/fhir/SpecimenDefinition/3a0cde98-4a73-6d67-1dfc-08e3fc9646a2"/>
            <status value="active"/>
            <typeTested>
               <preference value="preferred"/>
               <handling>
                  <instruction value="25°C/60% RH"/>
               </handling>
            </typeTested>
         </SpecimenDefinition>
      </resource>
   </entry>
   <entry>
      <fullUrl value="urn:uuid:610ca25c-6126-6117-8d4d-9458ccc33ce2"/>
      <resource>
         <ActivityDefinition>
                <!-- <id value="activityLongTerm25X-3"/>-->
                <!--ActivityDefinition-test-drug-pq-ex1-->
            <id value="610ca25c-6126-6117-8d4d-9458ccc33ce2"/>
            <meta>
               <profile value="http://hl7.org/fhir/uv/pharm-quality/StructureDefinition/ActivityDefinition-test-drug-pq"/>
            </meta>
            <!--http://example-server.com/fhir/ActivityDefinition/610ca25c-6126-6117-8d4d-9458ccc33ce2-->
            <url value="http://example-server.com/fhir/ActivityDefinition/610ca25c-6126-6117-8d4d-9458ccc33ce2"/>
            <title value="Long-term - 25°C/60% RH - X"/>
            <status value="active"/>
            <!-- changed here to not have url in front -->
            <!--ObservationDefinition/observationdefinition-test-method-drug-pq-ex1-->
            <observationRequirement value="http://example-server.com/fhir/ObservationDefinition/d1d252cf-9d58-43a0-85f6-56a7f7f92774"/>
            <!-- longTerm25X -->
         </ActivityDefinition>
      </resource>
   </entry>
   <entry>
      <fullUrl value="urn:uuid:d99c1b63-2d32-4887-8157-525cc8ae4732"/>
      <resource>
         <ActivityDefinition>
				<!--activityLongTerm25X-6-->
            <id value="d99c1b63-2d32-4887-8157-525cc8ae4732"/>
            <meta>
               <profile value="http://hl7.org/fhir/uv/pharm-quality/StructureDefinition/ActivityDefinition-test-drug-pq"/>
            </meta>
            <!--http://example-server.com/fhir/ActivityDefinition/d99c1b63-2d32-4887-8157-525cc8ae4732-->
            <url value="http://example-server.com/fhir/ActivityDefinition/d99c1b63-2d32-4887-8157-525cc8ae4732"/>
            <title value="Long-term - 25°C/60% RH - X"/>
            <status value="active"/>
            <!--ObservationDefinition/observationdefinition-test-method-drug-pq-ex1-->
            <observationRequirement value="http://example-server.com/fhir/ObservationDefinition/d1d252cf-9d58-43a0-85f6-56a7f7f92774"/>
         </ActivityDefinition>
      </resource>
   </entry>
   <entry>
      <fullUrl value="urn:uuid:38704856-0acf-95f0-000f-a933b6862fa0"/>
      <resource>
         <ActivityDefinition>
				<!--activityLongTerm25X-9-->
            <id value="38704856-0acf-95f0-000f-a933b6862fa0"/>
            <meta>
               <profile value="http://hl7.org/fhir/uv/pharm-quality/StructureDefinition/ActivityDefinition-test-drug-pq"/>
            </meta>
            <!--http://example-server.com/fhir/ActivityDefinition/38704856-0acf-95f0-000f-a933b6862fa0-->
            <url value="http://example-server.com/fhir/ActivityDefinition/38704856-0acf-95f0-000f-a933b6862fa0"/>
            <title value="Long-term - 25°C/60% RH - X"/>
            <status value="active"/>
            <!--ObservationDefinition/observationdefinition-test-method-drug-pq-ex1-->
            <observationRequirement value="http://example-server.com/fhir/ObservationDefinition/d1d252cf-9d58-43a0-85f6-56a7f7f92774"/>
         </ActivityDefinition>
      </resource>
   </entry>
   <entry>
      <fullUrl value="urn:uuid:4bfe1ee8-91ed-5c1b-3045-c749bb9d1d90"/>
      <resource>
         <ActivityDefinition>
                <!--id value="activityLongTerm25XYZ-Initial"/-->
                <!--activitydefinition-test-longterm25c-25xyz-initial-->
            <id value="4bfe1ee8-91ed-5c1b-3045-c749bb9d1d90"/>
            <meta>
               <profile value="http://hl7.org/fhir/uv/pharm-quality/StructureDefinition/ActivityDefinition-test-drug-pq"/>
            </meta>
            <!--http://example-server.com/fhir/ActivityDefinition/4bfe1ee8-91ed-5c1b-3045-c749bb9d1d90-->
            <url value="http://example-server.com/fhir/ActivityDefinition/4bfe1ee8-91ed-5c1b-3045-c749bb9d1d90"/>
            <title value="Long-term - 25°C/60% RH - XYZ"/>
            <status value="active"/>
            <!--ObservationDefinition/observationdefinition-test-method-drug-pq-ex1-->
            <observationRequirement value="http://example-server.com/fhir/ObservationDefinition/d1d252cf-9d58-43a0-85f6-56a7f7f92774"/>
            <!--ObservationDefinition/longTerm25Y-->
            <observationRequirement value="http://example-server.com/fhir/ObservationDefinition/b62b9524-53af-84ae-1071-2867a2169851"/>
            <!--ObservationDefinition/longTerm25Z-->
            <observationRequirement value="http://example-server.com/fhir/ObservationDefinition/363384c8-0d79-5ff0-5538-4933f99d6409"/>
         </ActivityDefinition>
      </resource>
   </entry>
   <entry>
      <fullUrl value="urn:uuid:f19a68b0-4ba1-7288-635e-12783035935b"/>
      <resource>
         <ActivityDefinition>
				<!--activityLongTerm25XY-12-->
            <id value="f19a68b0-4ba1-7288-635e-12783035935b"/>
            <meta>
               <profile value="http://hl7.org/fhir/uv/pharm-quality/StructureDefinition/ActivityDefinition-test-drug-pq"/>
            </meta>
            <!--http://example-server.com/fhir/ActivityDefinition/f19a68b0-4ba1-7288-635e-12783035935b-->
            <url value="http://example-server.com/fhir/ActivityDefinition/f19a68b0-4ba1-7288-635e-12783035935b"/>
            <title value="Long-term - 25°C/60% RH - XY"/>
            <status value="active"/>
            <!--ObservationDefinition/observationdefinition-test-method-drug-pq-ex1-->
            <observationRequirement value="http://example-server.com/fhir/ObservationDefinition/d1d252cf-9d58-43a0-85f6-56a7f7f92774"/>
            <!--ObservationDefinition/longTerm25Y-->
            <observationRequirement value="http://example-server.com/fhir/ObservationDefinition/b62b9524-53af-84ae-1071-2867a2169851"/>
         </ActivityDefinition>
      </resource>
   </entry>
   <entry>
      <fullUrl value="urn:uuid:ce2df6ab-5087-435c-35cb-a84572e756a2"/>
      <resource>
         <ActivityDefinition>
				<!--activityLongTerm25XY-18-->
            <id value="ce2df6ab-5087-435c-35cb-a84572e756a2"/>
            <meta>
               <profile value="http://hl7.org/fhir/uv/pharm-quality/StructureDefinition/ActivityDefinition-test-drug-pq"/>
            </meta>
            <!--http://example-server.com/fhir/ActivityDefinition/ce2df6ab-5087-435c-35cb-a84572e756a2-->
            <url value="http://example-server.com/fhir/ActivityDefinition/ce2df6ab-5087-435c-35cb-a84572e756a2"/>
            <title value="Long-term - 25°C/60% RH - XY"/>
            <status value="active"/>
            <!--ObservationDefinition/observationdefinition-test-method-drug-pq-ex1-->
            <observationRequirement value="http://example-server.com/fhir/ObservationDefinition/d1d252cf-9d58-43a0-85f6-56a7f7f92774"/>
            <!--ObservationDefinition/longTerm25Y-->
            <observationRequirement value="http://example-server.com/fhir/ObservationDefinition/b62b9524-53af-84ae-1071-2867a2169851"/>
         </ActivityDefinition>
      </resource>
   </entry>
   <entry>
      <fullUrl value="urn:uuid:cf2df6ab-5087-435c-35cb-a84572e756a2"/>
      <resource>
         <ActivityDefinition>
                <!--activityLongTerm25XY-24-->
            <id value="cf2df6ab-5087-435c-35cb-a84572e756a2"/>
            <meta>
               <profile value="http://hl7.org/fhir/uv/pharm-quality/StructureDefinition/ActivityDefinition-test-drug-pq"/>
            </meta>
            <!--http://example-server.com/fhir/ActivityDefinition/cf2df6ab-5087-435c-35cb-a84572e756a2-->
            <url value="http://example-server.com/fhir/ActivityDefinition/cf2df6ab-5087-435c-35cb-a84572e756a2"/>
            <title value="Long-term - 25°C/60% RH - XY"/>
            <status value="active"/>
            <!--ObservationDefinition/observationdefinition-test-method-drug-pq-ex1-->
            <observationRequirement value="http://example-server.com/fhir/ObservationDefinition/d1d252cf-9d58-43a0-85f6-56a7f7f92774"/>
            <!--ObservationDefinition/longTerm25Y-->
            <observationRequirement value="http://example-server.com/fhir/ObservationDefinition/b62b9524-53af-84ae-1071-2867a2169851"/>
         </ActivityDefinition>
      </resource>
   </entry>
   <entry>
      <fullUrl value="urn:uuid:d1d252cf-9d58-43a0-85f6-56a7f7f92774"/>
      <resource>
         <ObservationDefinition>
                <!--id value="longTerm25X"/-->
                <!--observationdefinition-test-method-drug-pq-ex1-->
            <id value="d1d252cf-9d58-43a0-85f6-56a7f7f92774"/>
            <meta>
               <profile value="http://hl7.org/fhir/uv/pharm-quality/StructureDefinition/ObservationDefinition-test-method-drug-pq"/>
            </meta>
            <!--url value="http://example-server.com/fhir/ObservationDefinition/b40d24f0-1c09-4a46-8849-b73524ca8ab1"/-->
            <!--http://hl7.org/fhir/uv/pharm-quality/ObservationDefinition/observationdefinition-test-method-drug-pq-ex1-->
            <url value="http://example-server.com/fhir/ObservationDefinition/d1d252cf-9d58-43a0-85f6-56a7f7f92774"/>
            <title value="X"/>
            <status value="active"/>
            <code>
               <text value="Battery of tests 'X' at 25°C/60% RH"/>
            </code>
            <specimen>
                    <!--SpecimenDefinition/specimendefinition-stability-pq-ex1-->
               <reference value="SpecimenDefinition/3a0cde98-4a73-6d67-1dfc-08e3fc9646a2"/>
            </specimen>
            <hasMember>
                    
                    <!--ObservationDefinition/Description-->
               <reference value="ObservationDefinition/1178fc31-0cfd-8c60-0b5b-9ae2850c6774"/>
            </hasMember>
            <hasMember>
                    <!--ObservationDefinition/Degradation-->
               <reference value="ObservationDefinition/2c5683d6-6e94-825b-056a-129a04c95e2f"/>
            </hasMember>
            <hasMember>
                    <!--ObservationDefinition/observationdefinition-test-method-drug-pq-ex2-->
               <reference value="ObservationDefinition/186eb33e-a01d-4252-166c-b5ba5e8a697c"/>
            </hasMember>
            <!-- can have others -->
         </ObservationDefinition>
      </resource>
   </entry>
   <entry>
      <fullUrl value="urn:uuid:1178fc31-0cfd-8c60-0b5b-9ae2850c6774"/>
      <resource>
         <ObservationDefinition>
                <!--Description-->
            <id value="1178fc31-0cfd-8c60-0b5b-9ae2850c6774"/>
            <meta>
               <profile value="http://hl7.org/fhir/uv/pharm-quality/StructureDefinition/ObservationDefinition-test-method-drug-pq"/>
            </meta>
            <!--http://example-server.com/fhir/ObservationDefinition/1178fc31-0cfd-8c60-0b5b-9ae2850c6774-->
            <url value="http://example-server.com/fhir/ObservationDefinition/1178fc31-0cfd-8c60-0b5b-9ae2850c6774"/>
            <title value="Description"/>
            <status value="active"/>
            <code>
               <coding>
                  <system value="http://dummy.loinc.org"/>
                  <code value="XXX"/>
                  <display value="Description"/>
               </coding>
               <text value="Description"/>
            </code>
            <qualifiedValue>
               <extension url="http://hl7.org/fhir/uv/pharm-quality/StructureDefinition/Extension-qualified-value-text-pq">
                  <valueString value="An orange film-coated tablet, debossed with 175 on one side">
	                        
                		</valueString>
               </extension>
            </qualifiedValue>
         </ObservationDefinition>
      </resource>
   </entry>
   <entry>
      <fullUrl value="urn:uuid:2c5683d6-6e94-825b-056a-129a04c95e2f"/>
      <resource>
         <ObservationDefinition>
                <!--Degradation-->
            <id value="2c5683d6-6e94-825b-056a-129a04c95e2f"/>
            <meta>
               <profile value="http://hl7.org/fhir/uv/pharm-quality/StructureDefinition/ObservationDefinition-test-method-drug-pq"/>
            </meta>
            <!--http://example-server.com/fhir/ObservationDefinition/2c5683d6-6e94-825b-056a-129a04c95e2f-->
            <url value="http://example-server.com/fhir/ObservationDefinition/2c5683d6-6e94-825b-056a-129a04c95e2f"/>
            <title value="Degradation Products by HPLC (% w/w)"/>
            <status value="active"/>
            <code>
               <coding>
                  <system value="http://dummy.loinc.org"/>
                  <code value="DGP"/>
                  <display value="Degradation Products"/>
               </coding>
            </code>
            <qualifiedValue>
               <appliesTo> <!-- could be a code -->
                  <text value="Impurity 1"/>
               </appliesTo>
               <range>
                  <high>
                     <value value="0.8"/>
                     <unit value="% w/w"/>
                     <system value="http://unitsofmeasure.org"/>
                     <code value="%"/>
                  </high>
               </range>
            </qualifiedValue>
            <qualifiedValue>
               <appliesTo>
                  <text value="Impurity 2"/>
               </appliesTo>
               <range>
                  <high>
                     <value value="0.4"/>
                     <unit value="% w/w"/>
                     <system value="http://unitsofmeasure.org"/>
                     <code value="%"/>
                  </high>
               </range>
            </qualifiedValue>
            <qualifiedValue>
               <appliesTo>
                  <text value="Impurity 3"/>
               </appliesTo>
               <range>
                  <high>
                     <value value="0.4"/>
                     <unit value="% w/w"/>
                     <system value="http://unitsofmeasure.org"/>
                     <code value="%"/>
                  </high>
               </range>
            </qualifiedValue>
            <qualifiedValue>
               <appliesTo>
                  <text value="Any Unspecified Degradation Impurity"/>
               </appliesTo>
               <range>
                  <high>
                     <value value="0.2"/>
                     <unit value="% w/w"/>
                     <system value="http://unitsofmeasure.org"/>
                     <code value="%"/>
                  </high>
               </range>
            </qualifiedValue>
            <qualifiedValue>
               <appliesTo>
                  <text value="Total Degradation Impurities"/>
               </appliesTo>
               <range>
                  <high>
                     <value value="2.3"/>
                     <unit value="% w/w"/>
                     <system value="http://unitsofmeasure.org"/>
                     <code value="%"/>
                  </high>
               </range>
            </qualifiedValue>
            <component> <!-- are expected to have a component that says what impurity this one is -->
               <code>
                  <coding>
                     <system value="http://dummy.loinc.org"/>
                     <code value="IMP"/>
                     <display value="Impurity"/>
                  </coding>
               </code>
            </component>
         </ObservationDefinition>
      </resource>
   </entry>
   <entry>
      <fullUrl value="urn:uuid:186eb33e-a01d-4252-166c-b5ba5e8a697c"/>
      <resource>
         <ObservationDefinition>
                <!-- <id value="Water"/> -->
                <!--observationdefinition-test-method-drug-pq-ex2-->
            <id value="186eb33e-a01d-4252-166c-b5ba5e8a697c"/>
            <meta>
               <profile value="http://hl7.org/fhir/uv/pharm-quality/StructureDefinition/ObservationDefinition-test-method-drug-pq"/>
            </meta>
            <!--http://example-server.com/fhir/ObservationDefinition/186eb33e-a01d-4252-166c-b5ba5e8a697c-->
            <url value="http://example-server.com/fhir/ObservationDefinition/186eb33e-a01d-4252-166c-b5ba5e8a697c"/>
            <title value="Water Content (% w/w) (Mean)"/>
            <status value="active"/>
            <code>
               <coding>
                  <system value="http://dummy.loinc.org"/>
                  <code value="WWW"/>
                  <display value="Water Content"/>
               </coding>
               <text value="Water Content"/>
            </code>
            <qualifiedValue>
               <range>
                  <high>
                     <value value="0.2"/>
                     <unit value="% w/w"/>
                     <system value="http://unitsofmeasure.org"/>
                     <code value="%"/>
                  </high>
               </range>
            </qualifiedValue>
         </ObservationDefinition>
      </resource>
   </entry>
   <entry>
      <fullUrl value="urn:uuid:b62b9524-53af-84ae-1071-2867a2169851"/>
      <resource>
         <ObservationDefinition>
                <!--longTerm25Y-->
            <id value="b62b9524-53af-84ae-1071-2867a2169851"/>
            <meta>
               <profile value="http://hl7.org/fhir/uv/pharm-quality/StructureDefinition/ObservationDefinition-test-method-drug-pq"/>
            </meta>
            <!--http://example-server.com/fhir/ObservationDefinition/b62b9524-53af-84ae-1071-2867a2169851-->
            <url value="http://example-server.com/fhir/ObservationDefinition/b62b9524-53af-84ae-1071-2867a2169851"/>
            <title value="Y"/>
            <status value="active"/>
            <code>
               <text value="Battery of tests 'Y' at 25°C/60% RH"/>
            </code>
            <specimen>
                    <!--SpecimenDefinition/specimendefinition-stability-pq-ex1-->
               <reference value="SpecimenDefinition/3a0cde98-4a73-6d67-1dfc-08e3fc9646a2"/>
            </specimen>
            <hasMember>
                    <!--ObservationDefinition/Microbiological-->
               <reference value="ObservationDefinition/73d9d304-a0b8-31b6-1165-346563b9305e"/>
            </hasMember>
            <!-- can have others -->
         </ObservationDefinition>
      </resource>
   </entry>
   <entry>
      <fullUrl value="urn:uuid:73d9d304-a0b8-31b6-1165-346563b9305e"/>
      <resource>
         <ObservationDefinition>
                <!--Microbiological-->
            <id value="73d9d304-a0b8-31b6-1165-346563b9305e"/>
            <meta>
               <profile value="http://hl7.org/fhir/uv/pharm-quality/StructureDefinition/ObservationDefinition-test-method-drug-pq"/>
            </meta>
            <!--http://example-server.com/fhir/ObservationDefinition/73d9d304-a0b8-31b6-1165-346563b9305e-->
            <url value="http://example-server.com/fhir/ObservationDefinition/73d9d304-a0b8-31b6-1165-346563b9305e"/>
            <title value="Microbiological"/>
            <status value="active"/>
            <code>
               <coding>
                  <system value="http://dummy.loinc.org"/>
                  <code value="YYY"/>
                  <display value="Microbiological Quality"/>
               </coding>
               <text value="Microbiological Quality"/>
            </code>
            <qualifiedValue>
               <extension url="http://hl7.org/fhir/uv/pharm-quality/StructureDefinition/Extension-qualified-value-text-pq">
                  <valueString value="Complies with PhEur"/>
               </extension>
            </qualifiedValue>
         </ObservationDefinition>
      </resource>
   </entry>
   <entry>
      <fullUrl value="urn:uuid:363384c8-0d79-5ff0-5538-4933f99d6409"/>
      <resource>
         <ObservationDefinition>
                <!--longTerm25Z-->
            <id value="363384c8-0d79-5ff0-5538-4933f99d6409"/>
            <meta>
               <profile value="http://hl7.org/fhir/uv/pharm-quality/StructureDefinition/ObservationDefinition-test-method-drug-pq"/>
            </meta>
            <!--http://example-server.com/fhir/ObservationDefinition/363384c8-0d79-5ff0-5538-4933f99d6409-->
            <url value="http://example-server.com/fhir/ObservationDefinition/363384c8-0d79-5ff0-5538-4933f99d6409"/>
            <title value="Z"/>
            <status value="active"/>
            <code>
               <text value="Battery of tests 'Z' at 25°C/60% RH"/>
            </code>
            <specimen>
                    <!--SpecimenDefinition/specimendefinition-stability-pq-ex1-->
               <reference value="SpecimenDefinition/3a0cde98-4a73-6d67-1dfc-08e3fc9646a2"/>
            </specimen>
            <hasMember>
                    <!--ObservationDefinition/Uniformity-->
               <reference value="ObservationDefinition/ef781c18-8e86-7859-209b-469ee9ad42d8"/>
            </hasMember>
            <!-- can have others -->
         </ObservationDefinition>
      </resource>
   </entry>
   <entry>
      <fullUrl value="urn:uuid:ef781c18-8e86-7859-209b-469ee9ad42d8"/>
      <resource>
         <ObservationDefinition>
                <!--Uniformity-->
            <id value="ef781c18-8e86-7859-209b-469ee9ad42d8"/>
            <meta>
               <profile value="http://hl7.org/fhir/uv/pharm-quality/StructureDefinition/ObservationDefinition-test-method-drug-pq"/>
            </meta>
            <!--http://example-server.com/fhir/ObservationDefinition/ef781c18-8e86-7859-209b-469ee9ad42d8-->
            <url value="http://example-server.com/fhir/ObservationDefinition/ef781c18-8e86-7859-209b-469ee9ad42d8"/>
            <title value="Uniformity of dosage"/>
            <status value="active"/>
            <code>
               <coding>
                  <system value="http://dummy.loinc.org"/>
                  <code value="ZZZ"/>
                  <display value="uniformity of dosage units (by weight)"/>
               </coding>
               <text value="uniformity of dosage units (by weight)"/>
            </code>
            <qualifiedValue>
               <extension url="http://hl7.org/fhir/uv/pharm-quality/StructureDefinition/Extension-qualified-value-text-pq">
                  <valueString value="Complies"/>
               </extension>
            </qualifiedValue>
         </ObservationDefinition>
      </resource>
   </entry>
   <!-- Accelerated tests -->
   <entry>
      <fullUrl value="urn:uuid:e95109ac-5ef9-1723-3506-2ef2f2e33d87"/>
      <resource>
         <SpecimenDefinition>
                <!--specimenDefStoredAt40-->
            <id value="e95109ac-5ef9-1723-3506-2ef2f2e33d87"/>
            <!--http://example-server.com/fhir/SpecimenDefinition/e95109ac-5ef9-1723-3506-2ef2f2e33d87-->
            <url value="http://example-server.com/fhir/SpecimenDefinition/e95109ac-5ef9-1723-3506-2ef2f2e33d87"/>
            <status value="active"/>
            <typeTested>
               <preference value="preferred"/>
               <handling>
                  <instruction value="40°C/75% RH"/>
               </handling>
            </typeTested>
         </SpecimenDefinition>
      </resource>
   </entry>
   <entry>
      <fullUrl value="urn:uuid:096e3f32-798e-6792-76ad-4ea783521c50"/>
      <resource>
         <ActivityDefinition>
				<!--activityAccelerated40X-3-->
            <id value="096e3f32-798e-6792-76ad-4ea783521c50"/>
            <meta>
               <profile value="http://hl7.org/fhir/uv/pharm-quality/StructureDefinition/ActivityDefinition-test-drug-pq"/>
            </meta>
            <!--http://example-server.com/fhir/ActivityDefinition/096e3f32-798e-6792-76ad-4ea783521c50-->
            <url value="http://example-server.com/fhir/ActivityDefinition/096e3f32-798e-6792-76ad-4ea783521c50"/>
            <title value="Accelerated - 40°C/70% RH - X"/>
            <status value="active"/>
            <!--ObservationDefinition/accelerated40X-->
            <observationRequirement value="http://example-server.com/fhir/ObservationDefinition/792ae02e-5ba3-13d1-8cc2-fd24a22f7f0b"/>
         </ActivityDefinition>
      </resource>
   </entry>
   <entry>
      <fullUrl value="urn:uuid:77f86b13-8193-3df7-8362-ab5e79ba541d"/>
      <resource>
         <ActivityDefinition>
			    <!--activityAccelerated40X-6-->
            <id value="77f86b13-8193-3df7-8362-ab5e79ba541d"/>
            <meta>
               <profile value="http://hl7.org/fhir/uv/pharm-quality/StructureDefinition/ActivityDefinition-test-drug-pq"/>
            </meta>
            <!--http://example-server.com/fhir/ActivityDefinition/77f86b13-8193-3df7-8362-ab5e79ba541d-->
            <url value="http://example-server.com/fhir/ActivityDefinition/77f86b13-8193-3df7-8362-ab5e79ba541d"/>
            <title value="Accelerated - 40°C/70% RH - X"/>
            <status value="active"/>
            <!--ObservationDefinition/accelerated40X-->
            <observationRequirement value="http://example-server.com/fhir/ObservationDefinition/792ae02e-5ba3-13d1-8cc2-fd24a22f7f0b"/>
         </ActivityDefinition>
      </resource>
   </entry>
   <entry>
      <fullUrl value="urn:uuid:6b96124b-1a44-0b6b-6783-d6c49360230b"/>
      <resource>
         <ActivityDefinition>
            	<!--activityAccelerated40XYZ-Initial-->
            <id value="6b96124b-1a44-0b6b-6783-d6c49360230b"/>
            <meta>
               <profile value="http://hl7.org/fhir/uv/pharm-quality/StructureDefinition/ActivityDefinition-test-drug-pq"/>
            </meta>
            <!--http://example-server.com/fhir/ActivityDefinition/6b96124b-1a44-0b6b-6783-d6c49360230b-->
            <url value="http://example-server.com/fhir/ActivityDefinition/6b96124b-1a44-0b6b-6783-d6c49360230b"/>
            <title value="Accelerated - 40°C/70% RH - XYZ"/>
            <status value="active"/>
            <!--ObservationDefinition/accelerated40X-->
            <observationRequirement value="http://example-server.com/fhir/ObservationDefinition/792ae02e-5ba3-13d1-8cc2-fd24a22f7f0b"/>
            <!--ObservationDefinition/accelerated40Y-->
            <observationRequirement value="http://example-server.com/fhir/ObservationDefinition/58cb0710-0ee6-1b7a-2a64-61a01df95ac2"/>
            <!--ObservationDefinition/accelerated40Z-->
            <observationRequirement value="http://example-server.com/fhir/ObservationDefinition/9bc183ee-6017-789b-8a6f-6a5c339f9ae0"/>
         </ActivityDefinition>
      </resource>
   </entry>
   <entry>
      <fullUrl value="urn:uuid:792ae02e-5ba3-13d1-8cc2-fd24a22f7f0b"/>
      <resource>
         <ObservationDefinition>
                <!--accelerated40X-->
            <id value="792ae02e-5ba3-13d1-8cc2-fd24a22f7f0b"/>
            <meta>
               <profile value="http://hl7.org/fhir/uv/pharm-quality/StructureDefinition/ObservationDefinition-test-method-drug-pq"/>
            </meta>
            <!--http://example-server.com/fhir/ObservationDefinition/792ae02e-5ba3-13d1-8cc2-fd24a22f7f0b-->
            <url value="http://example-server.com/fhir/ObservationDefinition/792ae02e-5ba3-13d1-8cc2-fd24a22f7f0b"/>
            <title value="X"/>
            <status value="active"/>
            <code>
               <text value="Battery of tests 'X' at 40°C/75% RH"/>
            </code>
            <specimen>
                    <!--SpecimenDefinition/specimenDefStoredAt40-->
               <reference value="SpecimenDefinition/e95109ac-5ef9-1723-3506-2ef2f2e33d87"/>
            </specimen>
            <hasMember>
                    <!--ObservationDefinition/Description-->
               <reference value="ObservationDefinition/1178fc31-0cfd-8c60-0b5b-9ae2850c6774"/>
            </hasMember>
            <hasMember>
                    <!--ObservationDefinition/observationdefinition-test-method-drug-pq-ex2-->
               <reference value="ObservationDefinition/186eb33e-a01d-4252-166c-b5ba5e8a697c"/>
            </hasMember>
            <!-- can have others -->
         </ObservationDefinition>
      </resource>
   </entry>
   <entry>
      <fullUrl value="urn:uuid:58cb0710-0ee6-1b7a-2a64-61a01df95ac2"/>
      <resource>
         <ObservationDefinition>
                <!--accelerated40Y-->
            <id value="58cb0710-0ee6-1b7a-2a64-61a01df95ac2"/>
            <meta>
               <profile value="http://hl7.org/fhir/uv/pharm-quality/StructureDefinition/ObservationDefinition-test-method-drug-pq"/>
            </meta>
            <!--http://example-server.com/fhir/ObservationDefinition/58cb0710-0ee6-1b7a-2a64-61a01df95ac2-->
            <url value="http://example-server.com/fhir/ObservationDefinition/58cb0710-0ee6-1b7a-2a64-61a01df95ac2"/>
            <title value="Y"/>
            <status value="active"/>
            <code>
               <text value="Battery of tests 'Y' at 40°C/75% RH"/>
            </code>
            <specimen>
                    <!--SpecimenDefinition/specimenDefStoredAt40-->
               <reference value="SpecimenDefinition/e95109ac-5ef9-1723-3506-2ef2f2e33d87"/>
            </specimen>
            <hasMember>
                    <!--ObservationDefinition/Microbiological-->
               <reference value="ObservationDefinition/73d9d304-a0b8-31b6-1165-346563b9305e"/>
            </hasMember>
            <!-- can have others -->
         </ObservationDefinition>
      </resource>
   </entry>
   <entry>
      <fullUrl value="urn:uuid:9bc183ee-6017-789b-8a6f-6a5c339f9ae0"/>
      <resource>
         <ObservationDefinition>
                <!--accelerated40Z-->
            <id value="9bc183ee-6017-789b-8a6f-6a5c339f9ae0"/>
            <meta>
               <profile value="http://hl7.org/fhir/uv/pharm-quality/StructureDefinition/ObservationDefinition-test-method-drug-pq"/>
            </meta>
            <!--http://example-server.com/fhir/ObservationDefinition/9bc183ee-6017-789b-8a6f-6a5c339f9ae0-->
            <url value="http://example-server.com/fhir/ObservationDefinition/9bc183ee-6017-789b-8a6f-6a5c339f9ae0"/>
            <title value="Z"/>
            <status value="active"/>
            <code>
               <text value="Battery of tests 'Z' at 25°C/60% RH"/>
            </code>
            <specimen>
                    <!--SpecimenDefinition/specimenDefStoredAt40-->
               <reference value="SpecimenDefinition/e95109ac-5ef9-1723-3506-2ef2f2e33d87"/>
            </specimen>
            <hasMember>
                    <!--ObservationDefinition/Uniformity-->
               <reference value="ObservationDefinition/ef781c18-8e86-7859-209b-469ee9ad42d8"/>
            </hasMember>
            <!-- can have others -->
         </ObservationDefinition>
      </resource>
   </entry>
   <entry>
      <fullUrl value="urn:uuid:b664977d-799d-a1ce-928a-5def2a9955bd"/>
      <resource>
         <Specimen>
                <!--id value="stabilityInitial-1"/-->
                <!--specimen-stability-pq-ex1-->
            <id value="b664977d-799d-a1ce-928a-5def2a9955bd"/>
            <meta>
               <profile value="http://hl7.org/fhir/uv/pharm-quality/StructureDefinition/Specimen-drug-pq"/>
            </meta>
            <collection>
               <collectedDateTime value="2020-12-01"/>
               <!-- when sample first taken, before the timed periods start -->
            </collection>
            <processing>
               <description value="No storage"/>
            </processing>
            <processing>
               <description value="25°C/60% RH"/>
            </processing>
         </Specimen>
      </resource>
   </entry>
   <entry>
      <fullUrl value="urn:uuid:b664977d-799d-a1ce-928a-5def2a9955be"/>
      <resource>
         <Specimen>
                <!--stabilityInitial-2-->
            <id value="b664977d-799d-a1ce-928a-5def2a9955be"/>
            <meta>
               <profile value="http://hl7.org/fhir/uv/pharm-quality/StructureDefinition/Specimen-drug-pq"/>
            </meta>
            <collection>
               <collectedDateTime value="2020-12-02"/>
               <!-- when sample first taken, before the timed periods start -->
            </collection>
            <processing>
               <description value="No storage"/>
            </processing>
            <processing>
               <description value="25°C/60% RH"/>
            </processing>
         </Specimen>
      </resource>
   </entry>
   <entry>
      <fullUrl value="urn:uuid:b664977d-799d-a1ce-928b-5def2a9955be"/>
      <resource>
         <Specimen>
                <!--stabilityInitial-3-->
            <id value="b664977d-799d-a1ce-928b-5def2a9955be"/>
            <meta>
               <profile value="http://hl7.org/fhir/uv/pharm-quality/StructureDefinition/Specimen-drug-pq"/>
            </meta>
            <collection>
               <collectedDateTime value="2020-12-03"/>
               <!-- when sample first taken, before the timed periods start -->
            </collection>
            <processing>
               <description value="No storage"/>
            </processing>
            <processing>
               <description value="25°C/60% RH"/>
            </processing>
         </Specimen>
      </resource>
   </entry>
   <!-- Section 11 - Stability Study - Results - Test Result - Long Term XYZ - Initial - on batch 1 -->
   <entry>
      <fullUrl value="urn:uuid:6fabbf78-9678-8030-485f-b149956308d5"/>
      <resource>
         <Observation>
                <!--id value="LongTerm25C-initial-1"/--> 
                <!--observation-test-result-longterm25c-initial-1-->
            <id value="6fabbf78-9678-8030-485f-b149956308d5"/>
            <meta>
               <profile value="http://hl7.org/fhir/uv/pharm-quality/StructureDefinition/Observation-test-result-drug-pq"/>
            </meta>
            <contained>
               <Observation>
                  <id value="LongTerm25C-initial-1-Description"/>
                  <meta>
                     <profile value="http://hl7.org/fhir/uv/pharm-quality/StructureDefinition/Observation-test-result-drug-pq"/>
                  </meta>
                  <instantiatesReference>
                            <!--ObservationDefinition/Description-->
                     <reference value="ObservationDefinition/1178fc31-0cfd-8c60-0b5b-9ae2850c6774"/>
                  </instantiatesReference>
                  <status value="final"/>
                  <code>
                     <coding>
                        <system value="http://dummy.loinc.org"/>
                        <code value="XXX"/>
                        <display value="Description"/>
                     </coding>
                     <text value="Description"/>
                  </code>
                  <subject>
                            <!--Medication/medication-batch-information-drug-pq-ex1-->
                     <reference value="Medication/7ef62d57-7cc6-9211-66d6-abc7e096093c"/>
                  </subject>
                  <effectiveDateTime value="2023-01-01T12:00:00Z"/>
                  <performer>
                            
                            <!--Organization/tester-->
                     <reference value="Organization/e3d2bc19-2f10-2b4d-1741-e4135fe612a9"/>
                  </performer>
                  <valueCodeableConcept>
                     <text value="Complies"/>
                  </valueCodeableConcept>
               </Observation>
            </contained>
            <contained>
               <Observation>
                  <id value="observation-test-result-drug-pq-ex1"/>
                  <meta>
                     <profile value="http://hl7.org/fhir/uv/pharm-quality/StructureDefinition/Observation-test-result-drug-pq"/>
                  </meta>
                  <instantiatesReference>
                            <!--ObservationDefinition/Degradation-->
                     <reference value="ObservationDefinition/2c5683d6-6e94-825b-056a-129a04c95e2f"/>
                  </instantiatesReference>
                  <status value="final"/>
                  <code>
                     <coding>
                        <system value="http://dummy.loinc.org"/>
                        <code value="DGP"/>
                        <display value="Degradation Products"/>
                     </coding>
                     <text value="Degradation Products"/>
                  </code>
                  <subject>
                            <!--Medication/medication-batch-information-drug-pq-ex1-->
                     <reference value="Medication/7ef62d57-7cc6-9211-66d6-abc7e096093c"/>
                  </subject>
                  <effectiveDateTime value="2023-01-01T12:00:00Z"/>
                  <performer>
                            
        				    <!--Organization/tester-->
                     <reference value="Organization/e3d2bc19-2f10-2b4d-1741-e4135fe612a9"/>
                  </performer>
                  <valueQuantity>
                     <value value="0.101"/>
                     <unit value="% w/w"/>
                     <system value="http://unitsofmeasure.org"/>
                     <code value="%"/>
                  </valueQuantity>
                  <component>
                     <code>
                        <coding>
                           <system value="http://dummy.loinc.org"/>
                           <code value="IMP"/>
                           <display value="Impurity"/>
                        </coding>
                     </code>
                     <valueCodeableConcept>
                                <!-- could have the code of an impurity substance, or could have an extension to point to it as a resource -->
                        <text value="Impurity 1"/>
                     </valueCodeableConcept>
                  </component>
               </Observation>
            </contained>
            <contained>
               <Observation>
                  <id value="LongTerm25C-initial-1-Degradation-imp2"/>
                  <meta>
                     <profile value="http://hl7.org/fhir/uv/pharm-quality/StructureDefinition/Observation-test-result-drug-pq"/>
                  </meta>
                  <instantiatesReference>
            				<!--ObservationDefinition/Degradation-->
                     <reference value="ObservationDefinition/2c5683d6-6e94-825b-056a-129a04c95e2f"/>
                  </instantiatesReference>
                  <status value="final"/>
                  <code>
                     <coding>
                        <system value="http://dummy.loinc.org"/>
                        <code value="DGP"/>
                        <display value="Degradation Products"/>
                     </coding>
                     <text value="Degradation Products"/>
                  </code>
                  <subject>
            		        <!--Medication/medication-batch-information-drug-pq-ex1-->
                     <reference value="Medication/7ef62d57-7cc6-9211-66d6-abc7e096093c"/>
                  </subject>
                  <effectiveDateTime value="2023-01-01T12:00:00Z"/>
                  <performer>
        				    
        				    <!--Organization/tester-->
                     <reference value="Organization/e3d2bc19-2f10-2b4d-1741-e4135fe612a9"/>
                  </performer>
                  <valueQuantity>
                     <value value="0.201"/>
                     <unit value="% w/w"/>
                     <system value="http://unitsofmeasure.org"/>
                     <code value="%"/>
                  </valueQuantity>
                  <component>
                     <code>
                        <coding>
                           <system value="http://dummy.loinc.org"/>
                           <code value="IMP"/>
                           <display value="Impurity"/>
                        </coding>
                     </code>
                     <valueCodeableConcept>
                        <text value="Impurity 2"/>
                     </valueCodeableConcept>
                  </component>
               </Observation>
            </contained>
            <contained>
               <Observation>
                  <id value="LongTerm25C-initial-1-Degradation-imp3"/>
                  <meta>
                     <profile value="http://hl7.org/fhir/uv/pharm-quality/StructureDefinition/Observation-test-result-drug-pq"/>
                  </meta>
                  <instantiatesReference>
            				<!--ObservationDefinition/Degradation-->
                     <reference value="ObservationDefinition/2c5683d6-6e94-825b-056a-129a04c95e2f"/>
                  </instantiatesReference>
                  <status value="final"/>
                  <code>
                     <coding>
                        <system value="http://dummy.loinc.org"/>
                        <code value="DGP"/>
                        <display value="Degradation Products"/>
                     </coding>
                     <text value="Degradation Products"/>
                  </code>
                  <subject>
            		        <!--Medication/medication-batch-information-drug-pq-ex1-->
                     <reference value="Medication/7ef62d57-7cc6-9211-66d6-abc7e096093c"/>
                  </subject>
                  <effectiveDateTime value="2023-01-01T12:00:00Z"/>
                  <performer>
            		        
            		        <!--Organization/tester-->
                     <reference value="Organization/e3d2bc19-2f10-2b4d-1741-e4135fe612a9"/>
                  </performer>
                  <valueQuantity>
                     <value value="0.201"/>
                     <unit value="% w/w"/>
                     <system value="http://unitsofmeasure.org"/>
                     <code value="%"/>
                  </valueQuantity>
                  <component>
                     <code>
                        <coding>
                           <system value="http://dummy.loinc.org"/>
                           <code value="IMP"/>
                           <display value="Impurity"/>
                        </coding>
                     </code>
                     <valueCodeableConcept>
                        <text value="Impurity 3"/>
                     </valueCodeableConcept>
                  </component>
               </Observation>
            </contained>
            <contained>
               <Observation>
                  <id value="LongTerm25C-initial-1-Degradation-impUnspecified"/>
                  <meta>
                     <profile value="http://hl7.org/fhir/uv/pharm-quality/StructureDefinition/Observation-test-result-drug-pq"/>
                  </meta>
                  <instantiatesReference>
            				<!--ObservationDefinition/Degradation-->
                     <reference value="ObservationDefinition/2c5683d6-6e94-825b-056a-129a04c95e2f"/>
                  </instantiatesReference>
                  <status value="final"/>
                  <code>
                     <coding>
                        <system value="http://dummy.loinc.org"/>
                        <code value="DGP"/>
                        <display value="Degradation Products"/>
                     </coding>
                     <text value="Degradation Products"/>
                  </code>
                  <subject>
            		        <!--Medication/medication-batch-information-drug-pq-ex1-->
                     <reference value="Medication/7ef62d57-7cc6-9211-66d6-abc7e096093c"/>
                  </subject>
                  <effectiveDateTime value="2023-01-01T12:00:00Z"/>
                  <performer>
            		        
            		        <!--Organization/tester-->
                     <reference value="Organization/e3d2bc19-2f10-2b4d-1741-e4135fe612a9"/>
                  </performer>
                  <valueQuantity>
                     <value value="0.101"/>
                     <comparator value="&lt;"/>
                     <unit value="% w/w"/>
                     <system value="http://unitsofmeasure.org"/>
                     <code value="%"/>
                  </valueQuantity>
                  <component>
                     <code>
                        <coding>
                           <system value="http://dummy.loinc.org"/>
                           <code value="IMP"/>
                           <display value="Impurity"/>
                        </coding>
                     </code>
                     <valueCodeableConcept>
                        <text value="Any Unspecified Degradation Impurity"/>
                     </valueCodeableConcept>
                  </component>
               </Observation>
            </contained>
            <contained>
               <Observation>
                  <id value="LongTerm25C-initial-1-Degradation-impTotal"/>
                  <meta>
                     <profile value="http://hl7.org/fhir/uv/pharm-quality/StructureDefinition/Observation-test-result-drug-pq"/>
                  </meta>
                  <instantiatesReference>
            				<!--ObservationDefinition/Degradation-->
                     <reference value="ObservationDefinition/2c5683d6-6e94-825b-056a-129a04c95e2f"/>
                  </instantiatesReference>
                  <status value="final"/>
                  <code>
                     <coding>
                        <system value="http://dummy.loinc.org"/>
                        <code value="DGP"/>
                        <display value="Degradation Products"/>
                     </coding>
                     <text value="Degradation Products"/>
                  </code>
                  <subject>
            		        <!--Medication/medication-batch-information-drug-pq-ex1-->
                     <reference value="Medication/7ef62d57-7cc6-9211-66d6-abc7e096093c"/>
                  </subject>
                  <effectiveDateTime value="2023-01-01T12:00:00Z"/>
                  <performer>
            		        
            		        <!--Organization/tester-->
                     <reference value="Organization/e3d2bc19-2f10-2b4d-1741-e4135fe612a9"/>
                  </performer>
                  <valueQuantity>
                     <value value="0.801"/>
                     <unit value="% w/w"/>
                     <system value="http://unitsofmeasure.org"/>
                     <code value="%"/>
                  </valueQuantity>
                  <component>
                     <code>
                        <coding>
                           <system value="http://dummy.loinc.org"/>
                           <code value="IMP"/>
                           <display value="Impurity"/>
                        </coding>
                     </code>
                     <valueCodeableConcept>
                        <text value="Total Degradation Impurities"/>
                     </valueCodeableConcept>
                  </component>
               </Observation>
            </contained>
            <contained>
               <Observation>
                  <id value="LongTerm25C-initial-1-Water"/>
                  <meta>
                     <profile value="http://hl7.org/fhir/uv/pharm-quality/StructureDefinition/Observation-test-result-drug-pq"/>
                  </meta>
                  <instantiatesReference>
            		        
            		        <!--ObservationDefinition/observationdefinition-test-method-drug-pq-ex2-->
                     <reference value="ObservationDefinition/186eb33e-a01d-4252-166c-b5ba5e8a697c"/>
                  </instantiatesReference>
                  <status value="final"/>
                  <code>
                     <coding>
                        <system value="http://dummy.loinc.org"/>
                        <code value="WWW"/>
                        <display value="Water Content"/>
                     </coding>
                  </code>
                  <subject>
            		        <!--Medication/medication-batch-information-drug-pq-ex1-->
                     <reference value="Medication/7ef62d57-7cc6-9211-66d6-abc7e096093c"/>
                  </subject>
                  <effectiveDateTime value="2023-01-01T12:00:00Z"/>
                  <performer>
            		        
            		        <!--Organization/tester-->
                     <reference value="Organization/e3d2bc19-2f10-2b4d-1741-e4135fe612a9"/>
                  </performer>
                  <valueQuantity>
                     <value value="0.1501"/>
                     <unit value="% w/w"/>
                     <system value="http://unitsofmeasure.org"/>
                     <code value="%"/>
                  </valueQuantity>
               </Observation>
            </contained>
            <contained>
               <Observation>
                  <id value="LongTerm25C-initial-1-Microbiological"/>
                  <meta>
                     <profile value="http://hl7.org/fhir/uv/pharm-quality/StructureDefinition/Observation-test-result-drug-pq"/>
                  </meta>
                  <instantiatesReference>
                            <!--ObservationDefinition/Microbiological-->
                     <reference value="ObservationDefinition/73d9d304-a0b8-31b6-1165-346563b9305e"/>
                  </instantiatesReference>
                  <status value="final"/>
                  <code>
                     <coding>
                        <system value="http://dummy.loinc.org"/>
                        <code value="YYY"/>
                        <display value="Microbiological Quality"/>
                     </coding>
                  </code>
                  <subject>
                            <!--Medication/medication-batch-information-drug-pq-ex1-->
                     <reference value="Medication/7ef62d57-7cc6-9211-66d6-abc7e096093c"/>
                  </subject>
                  <effectiveDateTime value="2023-01-01T12:00:00Z"/>
                  <performer>
                            
                            <!--Organization/tester-->
                     <reference value="Organization/e3d2bc19-2f10-2b4d-1741-e4135fe612a9"/>
                  </performer>
                  <valueCodeableConcept>
                     <text value="Complies"/>
                  </valueCodeableConcept>
               </Observation>
            </contained>
            <contained>
               <Observation>
                  <id value="LongTerm25C-initial-1-Uniformity"/>
                  <meta>
                     <profile value="http://hl7.org/fhir/uv/pharm-quality/StructureDefinition/Observation-test-result-drug-pq"/>
                  </meta>
                  <instantiatesReference>
                            <!--ObservationDefinition/Uniformity-->
                     <reference value="ObservationDefinition/ef781c18-8e86-7859-209b-469ee9ad42d8"/>
                  </instantiatesReference>
                  <status value="final"/>
                  <code>
                     <coding>
                        <system value="http://dummy.loinc.org"/>
                        <code value="ZZZ"/>
                        <display value="Uniformity of dosage units (by weight)"/>
                     </coding>
                  </code>
                  <subject>
                            <!--Medication/medication-batch-information-drug-pq-ex1-->
                     <reference value="Medication/7ef62d57-7cc6-9211-66d6-abc7e096093c"/>
                  </subject>
                  <effectiveDateTime value="2023-01-01T12:00:00Z"/>
                  <performer>
                            
                            <!--Organization/tester-->
                     <reference value="Organization/e3d2bc19-2f10-2b4d-1741-e4135fe612a9"/>
                  </performer>
                  <valueCodeableConcept>
                     <text value="Complies"/>
                  </valueCodeableConcept>
               </Observation>
            </contained>
            <extension url="http://hl7.org/fhir/StructureDefinition/workflow-triggeredBy">
               <valueReference>
            		    
            		    <!--ActivityDefinition/activitydefinition-test-longterm25c-25xyz-initial-->
                  <reference value="ActivityDefinition/4bfe1ee8-91ed-5c1b-3045-c749bb9d1d90"/>
               </valueReference>
            </extension>
            <status value="final"/>
            <code>
               <text value="Test Components - Long-term 25C etc - Initial (XYZ)"/>
            </code>
            <subject>
                    <!--Medication/medication-batch-information-drug-pq-ex1-->
               <reference value="Medication/7ef62d57-7cc6-9211-66d6-abc7e096093c"/>
            </subject>
            <effectiveDateTime value="2023-01-01T12:00:00Z"/>
            <performer>
				    
				    <!--Organization/tester-->
               <reference value="Organization/e3d2bc19-2f10-2b4d-1741-e4135fe612a9"/>
            </performer>
            <specimen>
    			    <!--Specimen/specimen-stability-pq-ex1-->
               <reference value="Specimen/b664977d-799d-a1ce-928a-5def2a9955bd"/>
            </specimen>
            <hasMember>
               <reference value="#LongTerm25C-initial-1-Description"/>
            </hasMember>
            <hasMember>
               <reference value="#observation-test-result-drug-pq-ex1"/>
            </hasMember>
            <hasMember>
               <reference value="#LongTerm25C-initial-1-Degradation-imp2"/>
            </hasMember>
            <hasMember>
               <reference value="#LongTerm25C-initial-1-Degradation-imp3"/>
            </hasMember>
            <hasMember>
               <reference value="#LongTerm25C-initial-1-Degradation-impUnspecified"/>
            </hasMember>
            <hasMember>
               <reference value="#LongTerm25C-initial-1-Degradation-impTotal"/>
            </hasMember>
            <hasMember>
               <reference value="#LongTerm25C-initial-1-Water"/>
            </hasMember>
            <hasMember>
               <reference value="#LongTerm25C-initial-1-Microbiological"/>
            </hasMember>
            <hasMember>
               <reference value="#LongTerm25C-initial-1-Uniformity"/>
            </hasMember>
         </Observation>
      </resource>
   </entry>
   <!-- Section 11 - Stability Study - Results - Test Result - Long Term XYZ - on batch 2 -->
   <entry>
      <fullUrl value="urn:uuid:74535cc6-5232-5ab5-81cf-167a480795e5"/>
      <resource>
         <Observation>
                <!--LongTerm25C-initial-2-->
            <id value="74535cc6-5232-5ab5-81cf-167a480795e5"/>
            <contained>
               <Observation>
                  <id value="LongTerm25C-initial-2-Description"/>
                  <instantiatesReference>
                            <!--ObservationDefinition/Description-->
                     <reference value="ObservationDefinition/1178fc31-0cfd-8c60-0b5b-9ae2850c6774"/>
                  </instantiatesReference>
                  <status value="final"/>
                  <code>
                     <coding>
                        <system value="http://dummy.loinc.org"/>
                        <code value="XXX"/>
                        <display value="Description"/>
                     </coding>
                     <text value="Description"/>
                  </code>
                  <subject>
                            <!--Medication/medication-actual-batch-2-->
                     <reference value="Medication/8306cfc5-158f-1a53-a683-048b226060d9"/>
                  </subject>
                  <effectiveDateTime value="2023-01-01T12:00:00Z"/>
                  <performer>
					<!--Organization/tester-->
                     <reference value="Organization/e3d2bc19-2f10-2b4d-1741-e4135fe612a9"/>
                  </performer>
                  <valueCodeableConcept>
                     <text value="Complies"/>
                  </valueCodeableConcept>
               </Observation>
            </contained>
            <contained>
               <Observation>
                  <id value="LongTerm25C-initial-2-Degradation"/>
                  <instantiatesReference>
                            <!--ObservationDefinition/Degradation-->
                     <reference value="ObservationDefinition/2c5683d6-6e94-825b-056a-129a04c95e2f"/>
                  </instantiatesReference>
                  <status value="final"/>
                  <code>
                     <coding>
                        <system value="http://dummy.loinc.org"/>
                        <code value="DGP"/>
                        <display value="Degradation Products"/>
                     </coding>
                     <text value="Degradation Products"/>
                  </code>
                  <subject>
                            <!--Medication/medication-actual-batch-2-->
                     <reference value="Medication/8306cfc5-158f-1a53-a683-048b226060d9"/>
                  </subject>
                  <effectiveDateTime value="2023-01-01T12:00:00Z"/>
                  <performer>
					<!--Organization/tester-->
                     <reference value="Organization/e3d2bc19-2f10-2b4d-1741-e4135fe612a9"/>
                  </performer>
                  <valueQuantity>
                     <value value="0.1"/>
                     <unit value="% w/w"/>
                     <system value="http://unitsofmeasure.org"/>
                     <code value="%"/>
                  </valueQuantity>
               </Observation>
            </contained>
            <contained>
               <Observation>
                  <id value="LongTerm25C-initial-2-Microbiological"/>
                  <instantiatesReference>
                            <!--ObservationDefinition/Microbiological-->
                     <reference value="ObservationDefinition/73d9d304-a0b8-31b6-1165-346563b9305e"/>
                  </instantiatesReference>
                  <status value="final"/>
                  <code>
                     <coding>
                        <system value="http://dummy.loinc.org"/>
                        <code value="YYY"/>
                        <display value="Microbiological Quality"/>
                     </coding>
                  </code>
                  <subject>
                            <!--Medication/medication-actual-batch-2-->
                     <reference value="Medication/8306cfc5-158f-1a53-a683-048b226060d9"/>
                  </subject>
                  <effectiveDateTime value="2023-01-01T12:00:00Z"/>
                  <performer>
					<!--Organization/tester-->
                     <reference value="Organization/e3d2bc19-2f10-2b4d-1741-e4135fe612a9"/>
                  </performer>
                  <valueString value="Complies"/>
               </Observation>
            </contained>
            <contained>
               <Observation>
                  <id value="LongTerm25C-initial-2-Uniformity"/>
                  <instantiatesReference>
                            <!--ObservationDefinition/Uniformity-->
                     <reference value="ObservationDefinition/ef781c18-8e86-7859-209b-469ee9ad42d8"/>
                  </instantiatesReference>
                  <status value="final"/>
                  <code>
                     <coding>
                        <system value="http://dummy.loinc.org"/>
                        <code value="ZZZ"/>
                        <display value="Uniformity of dosage units (by weight)"/>
                     </coding>
                  </code>
                  <subject>
                            <!--Medication/medication-actual-batch-2-->
                     <reference value="Medication/8306cfc5-158f-1a53-a683-048b226060d9"/>
                  </subject>
                  <effectiveDateTime value="2023-01-01T12:00:00Z"/>
                  <performer>
					<!--Organization/tester-->
                     <reference value="Organization/e3d2bc19-2f10-2b4d-1741-e4135fe612a9"/>
                  </performer>
                  <valueCodeableConcept>
                     <text value="Complies"/>
                  </valueCodeableConcept>
               </Observation>
            </contained>
            <!-- use a standard extension to say what plan this is being done for. However it doesn't link to the step of that plan
                     that would mean using sub-ActivityDefintions probably -->
            <extension url="http://hl7.org/fhir/StructureDefinition/workflow-triggeredBy">
               <valueReference>
                        <!--ActivityDefinition/activitydefinition-test-longterm25c-25xyz-initial-->
                  <reference value="ActivityDefinition/4bfe1ee8-91ed-5c1b-3045-c749bb9d1d90"/>
               </valueReference>
            </extension>
            <status value="final"/>
            <code>
               <text value="Test Components - Long-term 25C etc - Initial (XYZ)"/>
            </code>
            <subject>
                    <!--Medication/medication-actual-batch-2-->
               <reference value="Medication/8306cfc5-158f-1a53-a683-048b226060d9"/>
            </subject>
            <effectiveDateTime value="2023-01-01T12:00:00Z"/>
            <performer>
					<!--Organization/tester-->
               <reference value="Organization/e3d2bc19-2f10-2b4d-1741-e4135fe612a9"/>
            </performer>
            <specimen>
                    <!--Specimen/stabilityInitial-2-->
               <reference value="Specimen/b664977d-799d-a1ce-928a-5def2a9955be"/>
            </specimen>
            <hasMember>
               <reference value="#LongTerm25C-initial-2-Description"/>
            </hasMember>
            <hasMember>
               <reference value="#LongTerm25C-initial-2-Degradation"/>
            </hasMember>
            <hasMember>
               <reference value="#LongTerm25C-initial-2-Microbiological"/>
            </hasMember>
            <hasMember>
               <reference value="#LongTerm25C-initial-2-Uniformity"/>
            </hasMember>
         </Observation>
      </resource>
   </entry>
   <!-- Section 11 - Stability Study - Results - Test Result - Long Term XYZ - on batch 3 -->
   <entry>
      <fullUrl value="urn:uuid:8bf75da1-9221-66fe-6725-c64cb45a57e6"/>
      <resource>
         <Observation>
                <!--LongTerm25C-initial-3-->
            <id value="8bf75da1-9221-66fe-6725-c64cb45a57e6"/>
            <!-- TODO This doesnt match the specimen -->
            <contained>
               <Observation>
                  <id value="LongTerm25C-initial-3-Description"/>
                  <instantiatesReference>
                            <!--ObservationDefinition/Description-->
                     <reference value="ObservationDefinition/1178fc31-0cfd-8c60-0b5b-9ae2850c6774"/>
                  </instantiatesReference>
                  <status value="final"/>
                  <code>
                     <coding>
                        <system value="http://dummy.loinc.org"/>
                        <code value="XXX"/>
                        <display value="Description"/>
                     </coding>
                     <text value="Description"/>
                  </code>
                  <subject>
                            <!--Medication/medication-actual-batch-3-->
                     <reference value="Medication/f54d4666-7ae3-4e30-8c5a-6d13838c4f3b"/>
                  </subject>
                  <effectiveDateTime value="2023-01-01T12:00:00Z"/>
                  <performer>
					<!--Organization/tester-->
                     <reference value="Organization/e3d2bc19-2f10-2b4d-1741-e4135fe612a9"/>
                  </performer>
                  <valueCodeableConcept>
                     <text value="Complies"/>
                  </valueCodeableConcept>
               </Observation>
            </contained>
            <contained>
               <Observation>
                  <id value="LongTerm25C-initial-3-Degradation"/>
                  <instantiatesReference>
                            <!--ObservationDefinition/Degradation-->
                     <reference value="ObservationDefinition/2c5683d6-6e94-825b-056a-129a04c95e2f"/>
                  </instantiatesReference>
                  <status value="final"/>
                  <code>
                     <coding>
                        <system value="http://dummy.loinc.org"/>
                        <code value="DGP"/>
                        <display value="Degradation Products"/>
                     </coding>
                     <text value="Degradation Products"/>
                  </code>
                  <subject>
                            <!--Medication/medication-actual-batch-3-->
                     <reference value="Medication/f54d4666-7ae3-4e30-8c5a-6d13838c4f3b"/>
                  </subject>
                  <effectiveDateTime value="2023-01-01T12:00:00Z"/>
                  <performer>
					<!--Organization/tester-->
                     <reference value="Organization/e3d2bc19-2f10-2b4d-1741-e4135fe612a9"/>
                  </performer>
                  <valueQuantity>
                     <value value="0.1"/>
                     <unit value="% w/w"/>
                     <system value="http://unitsofmeasure.org"/>
                     <code value="%"/>
                  </valueQuantity>
               </Observation>
            </contained>
            <contained>
               <Observation>
                  <id value="LongTerm25C-initial-3-Microbiological"/>
                  <instantiatesReference>
                            <!--ObservationDefinition/Microbiological-->
                     <reference value="ObservationDefinition/73d9d304-a0b8-31b6-1165-346563b9305e"/>
                  </instantiatesReference>
                  <status value="final"/>
                  <code>
                     <coding>
                        <system value="http://dummy.loinc.org"/>
                        <code value="YYY"/>
                        <display value="Microbiological Quality"/>
                     </coding>
                  </code>
                  <subject>
                            <!--Medication/medication-actual-batch-3-->
                     <reference value="Medication/f54d4666-7ae3-4e30-8c5a-6d13838c4f3b"/>
                  </subject>
                  <effectiveDateTime value="2023-01-01T12:00:00Z"/>
                  <performer>
					<!--Organization/tester-->
                     <reference value="Organization/e3d2bc19-2f10-2b4d-1741-e4135fe612a9"/>
                  </performer>
                  <valueCodeableConcept>
                     <text value="Complies"/>
                  </valueCodeableConcept>
               </Observation>
            </contained>
            <contained>
               <Observation>
                  <id value="LongTerm25C-initial-3-Uniformity"/>
                  <instantiatesReference>
                            <!--ObservationDefinition/Uniformity-->
                     <reference value="ObservationDefinition/ef781c18-8e86-7859-209b-469ee9ad42d8"/>
                  </instantiatesReference>
                  <status value="final"/>
                  <code>
                     <coding>
                        <system value="http://dummy.loinc.org"/>
                        <code value="ZZZ"/>
                        <display value="Uniformity of dosage units (by weight)"/>
                     </coding>
                  </code>
                  <subject>
                            <!--Medication/medication-actual-batch-3-->
                     <reference value="Medication/f54d4666-7ae3-4e30-8c5a-6d13838c4f3b"/>
                  </subject>
                  <effectiveDateTime value="2023-01-01T12:00:00Z"/>
                  <performer>
					<!--Organization/tester-->
                     <reference value="Organization/e3d2bc19-2f10-2b4d-1741-e4135fe612a9"/>
                  </performer>
                  <valueCodeableConcept>
                     <text value="Complies"/>
                  </valueCodeableConcept>
               </Observation>
            </contained>
            <!-- use a standard extension to say what plan this is being done for. However it doesn't link to the step of that plan
                     that would mean using sub-ActivityDefintions probably -->
            <extension url="http://hl7.org/fhir/StructureDefinition/workflow-triggeredBy">
               <valueReference>
                        <!--ActivityDefinition/activitydefinition-test-longterm25c-25xyz-initial-->
                  <reference value="ActivityDefinition/4bfe1ee8-91ed-5c1b-3045-c749bb9d1d90"/>
               </valueReference>
            </extension>
            <status value="final"/>
            <code>
               <text value="Test Components - Long-term 25C etc - Initial (XYZ)"/>
            </code>
            <subject>
                    <!--Medication/medication-actual-batch-3-->
               <reference value="Medication/f54d4666-7ae3-4e30-8c5a-6d13838c4f3b"/>
            </subject>
            <effectiveDateTime value="2023-01-01T12:00:00Z"/>
            <performer>
					<!--Organization/tester-->
               <reference value="Organization/e3d2bc19-2f10-2b4d-1741-e4135fe612a9"/>
            </performer>
            <specimen>
                    <!--Specimen/stabilityInitial-3-->
               <reference value="Specimen/b664977d-799d-a1ce-928b-5def2a9955be"/>
            </specimen>
            <hasMember>
               <reference value="#LongTerm25C-initial-3-Description"/>
            </hasMember>
            <hasMember>
               <reference value="#LongTerm25C-initial-3-Degradation"/>
            </hasMember>
            <hasMember>
               <reference value="#LongTerm25C-initial-3-Microbiological"/>
            </hasMember>
            <hasMember>
               <reference value="#LongTerm25C-initial-3-Uniformity"/>
            </hasMember>
         </Observation>
      </resource>
   </entry>
   <!-- specimen -->
   <entry>
      <fullUrl value="urn:uuid:18826818-10c4-972c-618e-01694ff06c78"/>
      <resource>
         <Specimen>
                <!--stability18months-1-->
            <id value="18826818-10c4-972c-618e-01694ff06c78"/>
            <collection>
               <collectedDateTime value="2020-12-01"/>
               <!-- when sample first taken, before the timed periods start -->
            </collection>
            <processing>
               <description value="Store for 18 months"/>
               <timePeriod>
                  <extension url="http://hl7.org/fhir/uv/pharm-quality/StructureDefinition/Extension-batch-storage-duration-pq">
                     <valueDuration>
                        <value value="18"/>
                        <unit value="month"/>
                     </valueDuration>
                  </extension>
                  <start value="2020-12"/>
                  <end value="2022-06"/>
                  <!-- 18 months -->
               </timePeriod>
            </processing>
            <processing>
               <description value="25°C/60% RH"/>
            </processing>
         </Specimen>
      </resource>
   </entry>
   <entry>
      <fullUrl value="urn:uuid:18826818-10c4-972c-618e-01694ff06c88"/>
      <resource>
         <Specimen>
                <!--stability18months-2-->
            <id value="18826818-10c4-972c-618e-01694ff06c88"/>
            <collection>
               <collectedDateTime value="2020-12-02"/>
               <!-- when sample first taken, before the timed periods start -->
            </collection>
            <processing>
               <description value="Store for 18 months"/>
               <timePeriod>
                  <extension url="http://hl7.org/fhir/uv/pharm-quality/StructureDefinition/Extension-batch-storage-duration-pq">
                     <valueDuration>
                        <value value="18"/>
                        <unit value="month"/>
                     </valueDuration>
                  </extension>
                  <start value="2020-12"/>
                  <end value="2022-06"/>
                  <!-- 18 months -->
               </timePeriod>
            </processing>
            <processing>
               <description value="25°C/60% RH"/>
            </processing>
         </Specimen>
      </resource>
   </entry>
   <entry>
      <fullUrl value="urn:uuid:18826818-10c4-972c-618e-01694ff06c89"/>
      <resource>
         <Specimen>
                <!--stability18months-3-->
            <id value="18826818-10c4-972c-618e-01694ff06c89"/>
            <collection>
               <collectedDateTime value="2020-12-03"/>
               <!-- when sample first taken, before the timed periods start -->
            </collection>
            <processing>
               <description value="Store for 18 months"/>
               <timePeriod>
                  <extension url="http://hl7.org/fhir/uv/pharm-quality/StructureDefinition/Extension-batch-storage-duration-pq">
                     <valueDuration>
                        <value value="18"/>
                        <unit value="month"/>
                     </valueDuration>
                  </extension>
                  <start value="2020-12"/>
                  <end value="2022-06"/>
                  <!-- 18 months -->
               </timePeriod>
            </processing>
            <processing>
               <description value="25°C/60% RH"/>
            </processing>
         </Specimen>
      </resource>
   </entry>
   <!-- Section 11 - Stability Study - Results - Test Result - Long Term XY - 18M - on batch 1 -->
   <entry>
      <fullUrl value="urn:uuid:e803ad6d-0cb3-87dd-6af1-4b88c654a47c"/>
      <resource>
         <Observation>
                <!--LongTerm25C-18m-1-->
            <id value="e803ad6d-0cb3-87dd-6af1-4b88c654a47c"/>
            <contained>
               <Observation>
                  <id value="LongTerm25C-18m-1-Description"/>
                  <instantiatesReference>
                            <!--ObservationDefinition/Description-->
                     <reference value="ObservationDefinition/1178fc31-0cfd-8c60-0b5b-9ae2850c6774"/>
                  </instantiatesReference>
                  <status value="final"/>
                  <code>
                     <coding>
                        <system value="http://dummy.loinc.org"/>
                        <code value="XXX"/>
                        <display value="Description"/>
                     </coding>
                     <text value="Description"/>
                  </code>
                  <subject>
                            <!--Medication/medication-batch-information-drug-pq-ex1-->
                     <reference value="Medication/7ef62d57-7cc6-9211-66d6-abc7e096093c"/>
                  </subject>
                  <effectiveDateTime value="2023-01-01T12:00:00Z"/>
                  <performer>
					<!--Organization/tester-->
                     <reference value="Organization/e3d2bc19-2f10-2b4d-1741-e4135fe612a9"/>
                  </performer>
                  <valueCodeableConcept>
                     <text value="Complies"/>
                  </valueCodeableConcept>
               </Observation>
            </contained>
            <contained>
               <Observation>
                  <id value="LongTerm25C-18m-1-Degradation-imp1"/>
                  <meta>
                     <profile value="http://hl7.org/fhir/uv/pharm-quality/StructureDefinition/Observation-test-result-drug-pq"/>
                  </meta>
                  <instantiatesReference>
                            <!--ObservationDefinition/Degradation-->
                     <reference value="ObservationDefinition/2c5683d6-6e94-825b-056a-129a04c95e2f"/>
                  </instantiatesReference>
                  <status value="final"/>
                  <code>
                     <coding>
                        <system value="http://dummy.loinc.org"/>
                        <code value="DGP"/>
                        <display value="Degradation Products"/>
                     </coding>
                     <text value="Degradation Products"/>
                  </code>
                  <subject>
                            <!--Medication/medication-batch-information-drug-pq-ex1-->
                     <reference value="Medication/7ef62d57-7cc6-9211-66d6-abc7e096093c"/>
                  </subject>
                  <effectiveDateTime value="2023-01-01T12:00:00Z"/>
                  <performer>
					<!--Organization/tester-->
                     <reference value="Organization/e3d2bc19-2f10-2b4d-1741-e4135fe612a9"/>
                  </performer>
                  <valueQuantity>
                     <value value="0.118"/>
                     <unit value="% w/w"/>
                     <system value="http://unitsofmeasure.org"/>
                     <code value="%"/>
                  </valueQuantity>
                  <component>
                     <code>
                        <coding>
                           <system value="http://dummy.loinc.org"/>
                           <code value="IMP"/>
                           <display value="Impurity"/>
                        </coding>
                     </code>
                     <valueCodeableConcept>
                                <!-- could have the code of an impurity substance, or could have an extension to point to it as a resource -->
                        <text value="Impurity 1"/>
                     </valueCodeableConcept>
                  </component>
               </Observation>
            </contained>
            <contained>
               <Observation>
                  <id value="LongTerm25C-18m-1-Degradation-imp2"/>
                  <instantiatesReference>
                            <!--ObservationDefinition/Degradation-->
                     <reference value="ObservationDefinition/2c5683d6-6e94-825b-056a-129a04c95e2f"/>
                  </instantiatesReference>
                  <status value="final"/>
                  <code>
                     <coding>
                        <system value="http://dummy.loinc.org"/>
                        <code value="DGP"/>
                        <display value="Degradation Products"/>
                     </coding>
                     <text value="Degradation Products"/>
                  </code>
                  <subject>
                            <!--Medication/medication-batch-information-drug-pq-ex1-->
                     <reference value="Medication/7ef62d57-7cc6-9211-66d6-abc7e096093c"/>
                  </subject>
                  <effectiveDateTime value="2023-01-01T12:00:00Z"/>
                  <performer>
					<!--Organization/tester-->
                     <reference value="Organization/e3d2bc19-2f10-2b4d-1741-e4135fe612a9"/>
                  </performer>
                  <valueQuantity>
                     <value value="0.218"/>
                     <unit value="% w/w"/>
                     <system value="http://unitsofmeasure.org"/>
                     <code value="%"/>
                  </valueQuantity>
                  <component>
                     <code>
                        <coding>
                           <system value="http://dummy.loinc.org"/>
                           <code value="IMP"/>
                           <display value="Impurity"/>
                        </coding>
                     </code>
                     <valueCodeableConcept>
                        <text value="Impurity 2"/>
                     </valueCodeableConcept>
                  </component>
               </Observation>
            </contained>
            <contained>
               <Observation>
                  <id value="LongTerm25C-18m-1-Degradation-imp3"/>
                  <instantiatesReference>
                            <!--ObservationDefinition/Degradation-->
                     <reference value="ObservationDefinition/2c5683d6-6e94-825b-056a-129a04c95e2f"/>
                  </instantiatesReference>
                  <status value="final"/>
                  <code>
                     <coding>
                        <system value="http://dummy.loinc.org"/>
                        <code value="DGP"/>
                        <display value="Degradation Products"/>
                     </coding>
                     <text value="Degradation Products"/>
                  </code>
                  <subject>
                            <!--Medication/medication-batch-information-drug-pq-ex1-->
                     <reference value="Medication/7ef62d57-7cc6-9211-66d6-abc7e096093c"/>
                  </subject>
                  <effectiveDateTime value="2023-01-01T12:00:00Z"/>
                  <performer>
					<!--Organization/tester-->
                     <reference value="Organization/e3d2bc19-2f10-2b4d-1741-e4135fe612a9"/>
                  </performer>
                  <valueQuantity>
                     <value value="0.218"/>
                     <unit value="% w/w"/>
                     <system value="http://unitsofmeasure.org"/>
                     <code value="%"/>
                  </valueQuantity>
                  <component>
                     <code>
                        <coding>
                           <system value="http://dummy.loinc.org"/>
                           <code value="IMP"/>
                           <display value="Impurity"/>
                        </coding>
                     </code>
                     <valueCodeableConcept>
                        <text value="Impurity 3"/>
                     </valueCodeableConcept>
                  </component>
               </Observation>
            </contained>
            <contained>
               <Observation>
                  <id value="LongTerm25C-18m-1-Degradation-impUnspecified"/>
                  <instantiatesReference>
                            <!--ObservationDefinition/Degradation-->
                     <reference value="ObservationDefinition/2c5683d6-6e94-825b-056a-129a04c95e2f"/>
                  </instantiatesReference>
                  <status value="final"/>
                  <code>
                     <coding>
                        <system value="http://dummy.loinc.org"/>
                        <code value="DGP"/>
                        <display value="Degradation Products"/>
                     </coding>
                     <text value="Degradation Products"/>
                  </code>
                  <subject>
                            <!--Medication/medication-batch-information-drug-pq-ex1-->
                     <reference value="Medication/7ef62d57-7cc6-9211-66d6-abc7e096093c"/>
                  </subject>
                  <effectiveDateTime value="2023-01-01T12:00:00Z"/>
                  <performer>
					<!--Organization/tester-->
                     <reference value="Organization/e3d2bc19-2f10-2b4d-1741-e4135fe612a9"/>
                  </performer>
                  <valueQuantity>
                     <value value="0.118"/>
                     <comparator value="&lt;"/>
                     <unit value="% w/w"/>
                     <system value="http://unitsofmeasure.org"/>
                     <code value="%"/>
                  </valueQuantity>
                  <component>
                     <code>
                        <coding>
                           <system value="http://dummy.loinc.org"/>
                           <code value="IMP"/>
                           <display value="Impurity"/>
                        </coding>
                     </code>
                     <valueCodeableConcept>
                        <text value="Any Unspecified Degradation Impurity"/>
                     </valueCodeableConcept>
                  </component>
               </Observation>
            </contained>
            <contained>
               <Observation>
                  <id value="LongTerm25C-18m-1-Degradation-impTotal"/>
                  <instantiatesReference>
                            <!--ObservationDefinition/Degradation-->
                     <reference value="ObservationDefinition/2c5683d6-6e94-825b-056a-129a04c95e2f"/>
                  </instantiatesReference>
                  <status value="final"/>
                  <code>
                     <coding>
                        <system value="http://dummy.loinc.org"/>
                        <code value="DGP"/>
                        <display value="Degradation Products"/>
                     </coding>
                     <text value="Degradation Products"/>
                  </code>
                  <subject>
                            <!--Medication/medication-batch-information-drug-pq-ex1-->
                     <reference value="Medication/7ef62d57-7cc6-9211-66d6-abc7e096093c"/>
                  </subject>
                  <effectiveDateTime value="2023-01-01T12:00:00Z"/>
                  <performer>
					<!--Organization/tester-->
                     <reference value="Organization/e3d2bc19-2f10-2b4d-1741-e4135fe612a9"/>
                  </performer>
                  <valueQuantity>
                     <value value="0.818"/>
                     <unit value="% w/w"/>
                     <system value="http://unitsofmeasure.org"/>
                     <code value="%"/>
                  </valueQuantity>
                  <component>
                     <code>
                        <coding>
                           <system value="http://dummy.loinc.org"/>
                           <code value="IMP"/>
                           <display value="Impurity"/>
                        </coding>
                     </code>
                     <valueCodeableConcept>
                        <text value="Total Degradation Impurities"/>
                     </valueCodeableConcept>
                  </component>
               </Observation>
            </contained>
            <contained>
               <Observation>
                  <id value="LongTerm25C-18m-1-Water"/>
                  <instantiatesReference>
                            <!--ObservationDefinition/observationdefinition-test-method-drug-pq-ex2-->
                     <reference value="ObservationDefinition/186eb33e-a01d-4252-166c-b5ba5e8a697c"/>
                  </instantiatesReference>
                  <status value="final"/>
                  <code>
                     <coding>
                        <system value="http://dummy.loinc.org"/>
                        <code value="WWW"/>
                        <display value="Water Content"/>
                     </coding>
                  </code>
                  <subject>
                            <!--Medication/medication-batch-information-drug-pq-ex1-->
                     <reference value="Medication/7ef62d57-7cc6-9211-66d6-abc7e096093c"/>
                  </subject>
                  <effectiveDateTime value="2023-01-01T12:00:00Z"/>
                  <performer>
					<!--Organization/tester-->
                     <reference value="Organization/e3d2bc19-2f10-2b4d-1741-e4135fe612a9"/>
                  </performer>
                  <valueQuantity>
                     <value value="0.1518"/>
                     <unit value="% w/w"/>
                     <system value="http://unitsofmeasure.org"/>
                     <code value="%"/>
                  </valueQuantity>
               </Observation>
            </contained>
            <contained>
               <Observation>
                  <id value="LongTerm25C-18m-1-Microbiological"/>
                  <instantiatesReference>
                            <!--ObservationDefinition/Microbiological-->
                     <reference value="ObservationDefinition/73d9d304-a0b8-31b6-1165-346563b9305e"/>
                  </instantiatesReference>
                  <status value="final"/>
                  <code>
                     <coding>
                        <system value="http://dummy.loinc.org"/>
                        <code value="YYY"/>
                        <display value="Microbiological Quality"/>
                     </coding>
                  </code>
                  <subject>
                            <!--Medication/medication-batch-information-drug-pq-ex1-->
                     <reference value="Medication/7ef62d57-7cc6-9211-66d6-abc7e096093c"/>
                  </subject>
                  <effectiveDateTime value="2023-01-01T12:00:00Z"/>
                  <performer>
					<!--Organization/tester-->
                     <reference value="Organization/e3d2bc19-2f10-2b4d-1741-e4135fe612a9"/>
                  </performer>
                  <valueString value="Complies"/>
               </Observation>
            </contained>
            <contained>
               <Observation>
                  <id value="LongTerm25C-18m-1-Uniformity"/>
                  <instantiatesReference>
                            <!--ObservationDefinition/Uniformity-->
                     <reference value="ObservationDefinition/ef781c18-8e86-7859-209b-469ee9ad42d8"/>
                  </instantiatesReference>
                  <status value="final"/>
                  <code>
                     <coding>
                        <system value="http://dummy.loinc.org"/>
                        <code value="ZZZ"/>
                        <display value="Uniformity of dosage units (by weight)"/>
                     </coding>
                  </code>
                  <subject>
                            <!--Medication/medication-batch-information-drug-pq-ex1-->
                     <reference value="Medication/7ef62d57-7cc6-9211-66d6-abc7e096093c"/>
                  </subject>
                  <effectiveDateTime value="2023-01-01T12:00:00Z"/>
                  <performer>
					<!--Organization/tester-->
                     <reference value="Organization/e3d2bc19-2f10-2b4d-1741-e4135fe612a9"/>
                  </performer>
                  <valueCodeableConcept>
                     <text value="Complies"/>
                  </valueCodeableConcept>
               </Observation>
            </contained>
            <!-- use a standard extension to say what plan this is being done for. However it doesn't link to the step of that plan
                     that would mean using sub-ActivityDefintions probably -->
            <extension url="http://hl7.org/fhir/StructureDefinition/workflow-triggeredBy">
               <valueReference>
                    	<!--ActivityDefinition/activityLongTerm25XY-18-->
                  <reference value="ActivityDefinition/ce2df6ab-5087-435c-35cb-a84572e756a2"/>
               </valueReference>
            </extension>
            <status value="final"/>
            <code>
               <text value="Test Components - Long-term 25C etc - 18 months (XY)"/>
            </code>
            <subject>
                    <!--Medication/medication-batch-information-drug-pq-ex1-->
               <reference value="Medication/7ef62d57-7cc6-9211-66d6-abc7e096093c"/>
            </subject>
            <effectiveDateTime value="2023-01-01T12:00:00Z"/>
            <performer>
					<!--Organization/tester-->
               <reference value="Organization/e3d2bc19-2f10-2b4d-1741-e4135fe612a9"/>
            </performer>
            <specimen>
                    <!--Specimen/stability18months-1-->
               <reference value="Specimen/18826818-10c4-972c-618e-01694ff06c78"/>
            </specimen>
            <hasMember>
               <reference value="#LongTerm25C-18m-1-Description"/>
            </hasMember>
            <hasMember>
               <reference value="#LongTerm25C-18m-1-Degradation-imp1"/>
            </hasMember>
            <hasMember>
               <reference value="#LongTerm25C-18m-1-Degradation-imp2"/>
            </hasMember>
            <hasMember>
               <reference value="#LongTerm25C-18m-1-Degradation-imp3"/>
            </hasMember>
            <hasMember>
               <reference value="#LongTerm25C-18m-1-Degradation-impUnspecified"/>
            </hasMember>
            <hasMember>
               <reference value="#LongTerm25C-18m-1-Degradation-impTotal"/>
            </hasMember>
            <hasMember>
               <reference value="#LongTerm25C-18m-1-Water"/>
            </hasMember>
            <hasMember>
               <reference value="#LongTerm25C-18m-1-Microbiological"/>
            </hasMember>
            <hasMember>
               <reference value="#LongTerm25C-18m-1-Uniformity"/>
            </hasMember>
         </Observation>
      </resource>
   </entry>
   <!-- Section 11 - Stability Study - Results - Test Result - Long Term XY - 18M - on batch 2 -->
   <entry>
      <fullUrl value="urn:uuid:3519f84a-2889-90a0-a6b7-ff2f1be66a73"/>
      <resource>
         <Observation>
                <!--LongTerm25C-18m-2-->
            <id value="3519f84a-2889-90a0-a6b7-ff2f1be66a73"/>
            <contained>
               <Observation>
                  <id value="LongTerm25C-18m-2-Description"/>
                  <instantiatesReference>
                            <!--ObservationDefinition/Description-->
                     <reference value="ObservationDefinition/1178fc31-0cfd-8c60-0b5b-9ae2850c6774"/>
                  </instantiatesReference>
                  <status value="final"/>
                  <code>
                     <coding>
                        <system value="http://dummy.loinc.org"/>
                        <code value="XXX"/>
                        <display value="Description"/>
                     </coding>
                     <text value="Description"/>
                  </code>
                  <subject>
                            <!--Medication/medication-actual-batch-2-->
                     <reference value="Medication/8306cfc5-158f-1a53-a683-048b226060d9"/>
                  </subject>
                  <effectiveDateTime value="2023-01-01T12:00:00Z"/>
                  <performer>
					<!--Organization/tester-->
                     <reference value="Organization/e3d2bc19-2f10-2b4d-1741-e4135fe612a9"/>
                  </performer>
                  <valueCodeableConcept>
                     <text value="Complies"/>
                  </valueCodeableConcept>
               </Observation>
            </contained>
            <contained>
               <Observation>
                  <id value="LongTerm25C-18m-2-Microbiological"/>
                  <instantiatesReference>
                            <!--ObservationDefinition/Microbiological-->
                     <reference value="ObservationDefinition/73d9d304-a0b8-31b6-1165-346563b9305e"/>
                  </instantiatesReference>
                  <status value="final"/>
                  <code>
                     <coding>
                        <system value="http://dummy.loinc.org"/>
                        <code value="YYY"/>
                        <display value="Microbiological Quality"/>
                     </coding>
                  </code>
                  <subject>
                            <!--Medication/medication-actual-batch-2-->
                     <reference value="Medication/8306cfc5-158f-1a53-a683-048b226060d9"/>
                  </subject>
                  <effectiveDateTime value="2023-01-01T12:00:00Z"/>
                  <performer>
					<!--Organization/tester-->
                     <reference value="Organization/e3d2bc19-2f10-2b4d-1741-e4135fe612a9"/>
                  </performer>
                  <valueString value="Does not comply"/>
               </Observation>
            </contained>
            <!-- use a standard extension to say what plan this is being done for. However it doesn't link to the step of that plan
                     that would mean using sub-ActivityDefintions probably -->
            <extension url="http://hl7.org/fhir/StructureDefinition/workflow-triggeredBy">
               <valueReference>
                    	<!--ActivityDefinition/activityLongTerm25XY-18-->
                  <reference value="ActivityDefinition/ce2df6ab-5087-435c-35cb-a84572e756a2"/>
               </valueReference>
            </extension>
            <status value="final"/>
            <code>
               <text value="Test Components - Long-term 25C etc - 18 months (XY)"/>
            </code>
            <subject>
                    <!--Medication/medication-actual-batch-2-->
               <reference value="Medication/8306cfc5-158f-1a53-a683-048b226060d9"/>
            </subject>
            <effectiveDateTime value="2023-01-01T12:00:00Z"/>
            <performer>
					<!--Organization/tester-->
               <reference value="Organization/e3d2bc19-2f10-2b4d-1741-e4135fe612a9"/>
            </performer>
            <specimen>
                    <!--Specimen/stability18months-2-->
               <reference value="Specimen/18826818-10c4-972c-618e-01694ff06c88"/>
            </specimen>
            <hasMember>
               <reference value="#LongTerm25C-18m-2-Description"/>
            </hasMember>
            <hasMember>
               <reference value="#LongTerm25C-18m-2-Microbiological"/>
            </hasMember>
         </Observation>
      </resource>
   </entry>
   <!-- Section 11 - Stability Study - Results - Test Result - Long Term XY - 18M - on batch 3 -->
   <entry>
      <fullUrl value="urn:uuid:2ef362f1-0b65-3578-7f06-fbd74a24694a"/>
      <resource>
         <Observation>
                <!--LongTerm25C-18m-3-->
            <id value="2ef362f1-0b65-3578-7f06-fbd74a24694a"/>
            <contained>
               <Observation>
                  <id value="LongTerm25C-18m-3-Description"/>
                  <instantiatesReference>
                            <!--ObservationDefinition/Description-->
                     <reference value="ObservationDefinition/1178fc31-0cfd-8c60-0b5b-9ae2850c6774"/>
                  </instantiatesReference>
                  <status value="final"/>
                  <code>
                     <coding>
                        <system value="http://dummy.loinc.org"/>
                        <code value="XXX"/>
                        <display value="Description"/>
                     </coding>
                     <text value="Description"/>
                  </code>
                  <subject>
                            <!--Medication/medication-actual-batch-3-->
                     <reference value="Medication/f54d4666-7ae3-4e30-8c5a-6d13838c4f3b"/>
                  </subject>
                  <effectiveDateTime value="2023-01-01T12:00:00Z"/>
                  <performer>
					<!--Organization/tester-->
                     <reference value="Organization/e3d2bc19-2f10-2b4d-1741-e4135fe612a9"/>
                  </performer>
                  <valueCodeableConcept>
                     <text value="Complies"/>
                  </valueCodeableConcept>
               </Observation>
            </contained>
            <contained>
               <Observation>
                  <id value="LongTerm25C-18m-3-Microbiological"/>
                  <instantiatesReference>
                            <!--ObservationDefinition/Microbiological-->
                     <reference value="ObservationDefinition/73d9d304-a0b8-31b6-1165-346563b9305e"/>
                  </instantiatesReference>
                  <status value="final"/>
                  <code>
                     <coding>
                        <system value="http://dummy.loinc.org"/>
                        <code value="YYY"/>
                        <display value="Microbiological Quality"/>
                     </coding>
                  </code>
                  <subject>
                            <!--Medication/medication-actual-batch-3-->
                     <reference value="Medication/f54d4666-7ae3-4e30-8c5a-6d13838c4f3b"/>
                  </subject>
                  <effectiveDateTime value="2023-01-01T12:00:00Z"/>
                  <performer>
					<!--Organization/tester-->
                     <reference value="Organization/e3d2bc19-2f10-2b4d-1741-e4135fe612a9"/>
                  </performer>
                  <valueString value="Does not comply"/>
               </Observation>
            </contained>
            <!-- use a standard extension to say what plan this is being done for. However it doesn't link to the step of that plan
                     that would mean using sub-ActivityDefintions probably -->
            <extension url="http://hl7.org/fhir/StructureDefinition/workflow-triggeredBy">
               <valueReference>
                    	<!--ActivityDefinition/activityLongTerm25XY-18-->
                  <reference value="ActivityDefinition/ce2df6ab-5087-435c-35cb-a84572e756a2"/>
               </valueReference>
            </extension>
            <status value="final"/>
            <code>
               <text value="Test Components - Long-term 25C etc - 18 months (XY)"/>
            </code>
            <subject>
                    <!--Medication/medication-actual-batch-3-->
               <reference value="Medication/f54d4666-7ae3-4e30-8c5a-6d13838c4f3b"/>
            </subject>
            <effectiveDateTime value="2023-01-01T12:00:00Z"/>
            <performer>
					<!--Organization/tester-->
               <reference value="Organization/e3d2bc19-2f10-2b4d-1741-e4135fe612a9"/>
            </performer>
            <specimen>
                    <!--Specimen/stability18months-3-->
               <reference value="Specimen/18826818-10c4-972c-618e-01694ff06c89"/>
            </specimen>
            <hasMember>
               <reference value="#LongTerm25C-18m-3-Description"/>
            </hasMember>
            <hasMember>
               <reference value="#LongTerm25C-18m-3-Microbiological"/>
            </hasMember>
         </Observation>
      </resource>
   </entry>
   <!-- specimen -->
   <entry>
      <fullUrl value="urn:uuid:8a7771db-5cc0-33f8-966a-b2f792bf5785"/>
      <resource>
         <Specimen>
                <!--stabilityInitialAcc-3-->
            <id value="8a7771db-5cc0-33f8-966a-b2f792bf5785"/>
            <collection>
               <collectedDateTime value="2020-12-01"/>
               <!-- when sample first taken, before the timed periods start -->
            </collection>
            <processing>
               <description value="Store for 3 months"/>
               <timePeriod>
                  <extension url="http://hl7.org/fhir/uv/pharm-quality/StructureDefinition/Extension-batch-storage-duration-pq">
                     <valueDuration>
                        <value value="18"/>
                        <unit value="month"/>
                     </valueDuration>
                  </extension>
                  <start value="2020-12"/>
                  <end value="2021-03"/>
                  <!-- 3 months -->
               </timePeriod>
            </processing>
            <processing>
               <description value="40°C/75% RH"/>
            </processing>
         </Specimen>
      </resource>
   </entry>
   <!-- Section 11 - Stability Study - Results - Test Result - Accelerated XYZ - Initial - on batch 1 -->
   <entry>
      <fullUrl value="urn:uuid:72e0640b-094b-909e-5268-3dee92af4bbd"/>
      <resource>
         <Observation>
                <!--Accelerated40C-3-1-->
            <id value="72e0640b-094b-909e-5268-3dee92af4bbd"/>
            <contained>
               <Observation>
                  <id value="Accelerated40C-3-1-Description"/>
                  <instantiatesReference>
                            <!--ObservationDefinition/Description-->
                     <reference value="ObservationDefinition/1178fc31-0cfd-8c60-0b5b-9ae2850c6774"/>
                  </instantiatesReference>
                  <status value="final"/>
                  <code>
                     <coding>
                        <system value="http://dummy.loinc.org"/>
                        <code value="XXX"/>
                        <display value="Description"/>
                     </coding>
                     <text value="Description"/>
                  </code>
                  <subject>
                            <!--Medication/medication-batch-information-drug-pq-ex1-->
                     <reference value="Medication/7ef62d57-7cc6-9211-66d6-abc7e096093c"/>
                  </subject>
                  <effectiveDateTime value="2023-01-01T12:00:00Z"/>
                  <performer>
					<!--Organization/tester-->
                     <reference value="Organization/e3d2bc19-2f10-2b4d-1741-e4135fe612a9"/>
                  </performer>
                  <valueCodeableConcept>
                     <text value="Complies"/>
                  </valueCodeableConcept>
               </Observation>
            </contained>
            <contained>
               <Observation>
                  <id value="Accelerated40C-3-1-Degradation-imp1"/>
                  <instantiatesReference>
                            <!--ObservationDefinition/Degradation-->
                     <reference value="ObservationDefinition/2c5683d6-6e94-825b-056a-129a04c95e2f"/>
                  </instantiatesReference>
                  <status value="final"/>
                  <code>
                     <coding>
                        <system value="http://dummy.loinc.org"/>
                        <code value="DGP"/>
                        <display value="Degradation Products"/>
                     </coding>
                     <text value="Degradation Products"/>
                  </code>
                  <subject>
                            <!--Medication/medication-batch-information-drug-pq-ex1-->
                     <reference value="Medication/7ef62d57-7cc6-9211-66d6-abc7e096093c"/>
                  </subject>
                  <effectiveDateTime value="2023-01-01T12:00:00Z"/>
                  <performer>
					<!--Organization/tester-->
                     <reference value="Organization/e3d2bc19-2f10-2b4d-1741-e4135fe612a9"/>
                  </performer>
                  <valueQuantity>
                     <value value="0.143"/>
                     <unit value="% w/w"/>
                     <system value="http://unitsofmeasure.org"/>
                     <code value="%"/>
                  </valueQuantity>
                  <component>
                     <code>
                        <coding>
                           <system value="http://dummy.loinc.org"/>
                           <code value="IMP"/>
                           <display value="Impurity"/>
                        </coding>
                     </code>
                     <valueCodeableConcept>
                    			<!-- could have the code of an impurity substance, or could have an extension to point to it as a resource -->
                        <text value="Impurity 1"/>
                     </valueCodeableConcept>
                  </component>
               </Observation>
            </contained>
            <contained>
               <Observation>
                  <id value="Accelerated40C-3-1-Degradation-imp2"/>
                  <instantiatesReference>
            				<!--ObservationDefinition/Degradation-->
                     <reference value="ObservationDefinition/2c5683d6-6e94-825b-056a-129a04c95e2f"/>
                  </instantiatesReference>
                  <status value="final"/>
                  <code>
                     <coding>
                        <system value="http://dummy.loinc.org"/>
                        <code value="DGP"/>
                        <display value="Degradation Products"/>
                     </coding>
                     <text value="Degradation Products"/>
                  </code>
                  <subject>
            		        <!--Medication/medication-batch-information-drug-pq-ex1-->
                     <reference value="Medication/7ef62d57-7cc6-9211-66d6-abc7e096093c"/>
                  </subject>
                  <effectiveDateTime value="2023-01-01T12:00:00Z"/>
                  <performer>
					<!--Organization/tester-->
                     <reference value="Organization/e3d2bc19-2f10-2b4d-1741-e4135fe612a9"/>
                  </performer>
                  <valueQuantity>
                     <value value="0.243"/>
                     <unit value="% w/w"/>
                     <system value="http://unitsofmeasure.org"/>
                     <code value="%"/>
                  </valueQuantity>
                  <component>
                     <code>
                        <coding>
                           <system value="http://dummy.loinc.org"/>
                           <code value="IMP"/>
                           <display value="Impurity"/>
                        </coding>
                     </code>
                     <valueCodeableConcept>
            					<!-- could have the code of an impurity substance, or could have an extension to point to it as a resource -->
                        <text value="Impurity 2"/>
                     </valueCodeableConcept>
                  </component>
               </Observation>
            </contained>
            <contained>
               <Observation>
                  <id value="Accelerated40C-3-1-Degradation-imp3"/>
                  <instantiatesReference>
                            <!--ObservationDefinition/Degradation-->
                     <reference value="ObservationDefinition/2c5683d6-6e94-825b-056a-129a04c95e2f"/>
                  </instantiatesReference>
                  <status value="final"/>
                  <code>
                     <coding>
                        <system value="http://dummy.loinc.org"/>
                        <code value="DGP"/>
                        <display value="Degradation Products"/>
                     </coding>
                     <text value="Degradation Products"/>
                  </code>
                  <subject>
                            <!--Medication/medication-batch-information-drug-pq-ex1-->
                     <reference value="Medication/7ef62d57-7cc6-9211-66d6-abc7e096093c"/>
                  </subject>
                  <effectiveDateTime value="2023-01-01T12:00:00Z"/>
                  <performer>
					<!--Organization/tester-->
                     <reference value="Organization/e3d2bc19-2f10-2b4d-1741-e4135fe612a9"/>
                  </performer>
                  <valueQuantity>
                     <value value="0.201"/>
                     <unit value="% w/w"/>
                     <system value="http://unitsofmeasure.org"/>
                     <code value="%"/>
                  </valueQuantity>
                  <component>
                     <code>
                        <coding>
                           <system value="http://dummy.loinc.org"/>
                           <code value="IMP"/>
                           <display value="Impurity"/>
                        </coding>
                     </code>
                     <valueCodeableConcept>
                        <text value="Impurity 3"/>
                     </valueCodeableConcept>
                  </component>
               </Observation>
            </contained>
            <contained>
               <Observation>
                  <id value="Accelerated40C-3-1-Degradation-impUnspecified"/>
                  <instantiatesReference>
                            <!--ObservationDefinition/Degradation-->
                     <reference value="ObservationDefinition/2c5683d6-6e94-825b-056a-129a04c95e2f"/>
                  </instantiatesReference>
                  <status value="final"/>
                  <code>
                     <coding>
                        <system value="http://dummy.loinc.org"/>
                        <code value="DGP"/>
                        <display value="Degradation Products"/>
                     </coding>
                     <text value="Degradation Products"/>
                  </code>
                  <subject>
                            <!--Medication/medication-batch-information-drug-pq-ex1-->
                     <reference value="Medication/7ef62d57-7cc6-9211-66d6-abc7e096093c"/>
                  </subject>
                  <effectiveDateTime value="2023-01-01T12:00:00Z"/>
                  <performer>
					<!--Organization/tester-->
                     <reference value="Organization/e3d2bc19-2f10-2b4d-1741-e4135fe612a9"/>
                  </performer>
                  <valueQuantity>
                     <value value="0.101"/>
                     <comparator value="&lt;"/>
                     <unit value="% w/w"/>
                     <system value="http://unitsofmeasure.org"/>
                     <code value="%"/>
                  </valueQuantity>
                  <component>
                     <code>
                        <coding>
                           <system value="http://dummy.loinc.org"/>
                           <code value="IMP"/>
                           <display value="Impurity"/>
                        </coding>
                     </code>
                     <valueCodeableConcept>
                        <text value="Any Unspecified Degradation Impurity"/>
                     </valueCodeableConcept>
                  </component>
               </Observation>
            </contained>
            <contained>
               <Observation>
                  <id value="Accelerated40C-3-1-Degradation-impTotal"/>
                  <instantiatesReference>
                            <!--ObservationDefinition/Degradation-->
                     <reference value="ObservationDefinition/2c5683d6-6e94-825b-056a-129a04c95e2f"/>
                  </instantiatesReference>
                  <status value="final"/>
                  <code>
                     <coding>
                        <system value="http://dummy.loinc.org"/>
                        <code value="DGP"/>
                        <display value="Degradation Products"/>
                     </coding>
                     <text value="Degradation Products"/>
                  </code>
                  <subject>
                            <!--Medication/medication-batch-information-drug-pq-ex1-->
                     <reference value="Medication/7ef62d57-7cc6-9211-66d6-abc7e096093c"/>
                  </subject>
                  <effectiveDateTime value="2023-01-01T12:00:00Z"/>
                  <performer>
					<!--Organization/tester-->
                     <reference value="Organization/e3d2bc19-2f10-2b4d-1741-e4135fe612a9"/>
                  </performer>
                  <valueQuantity>
                     <value value="0.801"/>
                     <unit value="% w/w"/>
                     <system value="http://unitsofmeasure.org"/>
                     <code value="%"/>
                  </valueQuantity>
                  <component>
                     <code>
                        <coding>
                           <system value="http://dummy.loinc.org"/>
                           <code value="IMP"/>
                           <display value="Impurity"/>
                        </coding>
                     </code>
                     <valueCodeableConcept>
                        <text value="Total Degradation Impurities"/>
                     </valueCodeableConcept>
                  </component>
               </Observation>
            </contained>
            <contained>
               <Observation>
                  <id value="Accelerated40C-3-1-Water"/>
                  <instantiatesReference>
                            <!--ObservationDefinition/observationdefinition-test-method-drug-pq-ex2-->
                     <reference value="ObservationDefinition/186eb33e-a01d-4252-166c-b5ba5e8a697c"/>
                  </instantiatesReference>
                  <status value="final"/>
                  <code>
                     <coding>
                        <system value="http://dummy.loinc.org"/>
                        <code value="WWW"/>
                        <display value="Water Content"/>
                     </coding>
                  </code>
                  <subject>
                            <!--Medication/medication-batch-information-drug-pq-ex1-->
                     <reference value="Medication/7ef62d57-7cc6-9211-66d6-abc7e096093c"/>
                  </subject>
                  <effectiveDateTime value="2023-01-01T12:00:00Z"/>
                  <performer>
					<!--Organization/tester-->
                     <reference value="Organization/e3d2bc19-2f10-2b4d-1741-e4135fe612a9"/>
                  </performer>
                  <valueQuantity>
                     <value value="0.1501"/>
                     <unit value="% w/w"/>
                     <system value="http://unitsofmeasure.org"/>
                     <code value="%"/>
                  </valueQuantity>
               </Observation>
            </contained>
            <contained>
               <Observation>
                  <id value="Accelerated40C-3-1-Microbiological"/>
                  <instantiatesReference>
                            <!--ObservationDefinition/Microbiological-->
                     <reference value="ObservationDefinition/73d9d304-a0b8-31b6-1165-346563b9305e"/>
                  </instantiatesReference>
                  <status value="final"/>
                  <code>
                     <coding>
                        <system value="http://dummy.loinc.org"/>
                        <code value="YYY"/>
                        <display value="Microbiological Quality"/>
                     </coding>
                  </code>
                  <subject>
                            <!--Medication/medication-batch-information-drug-pq-ex1-->
                     <reference value="Medication/7ef62d57-7cc6-9211-66d6-abc7e096093c"/>
                  </subject>
                  <effectiveDateTime value="2023-01-01T12:00:00Z"/>
                  <performer>
					<!--Organization/tester-->
                     <reference value="Organization/e3d2bc19-2f10-2b4d-1741-e4135fe612a9"/>
                  </performer>
                  <valueCodeableConcept>
                     <text value="Complies"/>
                  </valueCodeableConcept>
               </Observation>
            </contained>
            <contained>
               <Observation>
                  <id value="Accelerated40C-3-1-Uniformity"/>
                  <instantiatesReference>
                            <!--ObservationDefinition/Uniformity-->
                     <reference value="ObservationDefinition/ef781c18-8e86-7859-209b-469ee9ad42d8"/>
                  </instantiatesReference>
                  <status value="final"/>
                  <code>
                     <coding>
                        <system value="http://dummy.loinc.org"/>
                        <code value="ZZZ"/>
                        <display value="Uniformity of dosage units (by weight)"/>
                     </coding>
                  </code>
                  <subject>
                            <!--Medication/medication-batch-information-drug-pq-ex1-->
                     <reference value="Medication/7ef62d57-7cc6-9211-66d6-abc7e096093c"/>
                  </subject>
                  <effectiveDateTime value="2023-01-01T12:00:00Z"/>
                  <performer>
					<!--Organization/tester-->
                     <reference value="Organization/e3d2bc19-2f10-2b4d-1741-e4135fe612a9"/>
                  </performer>
                  <valueCodeableConcept>
                     <text value="Complies"/>
                  </valueCodeableConcept>
               </Observation>
            </contained>
            <!-- use a standard extension to say what plan this is being done for. However it doesn't link to the step of that plan
                     that would mean using sub-ActivityDefintions probably -->
            <extension url="http://hl7.org/fhir/StructureDefinition/workflow-triggeredBy">
               <valueReference>
                        <!--ActivityDefinition/activityAccelerated40X-3-->
                  <reference value="ActivityDefinition/096e3f32-798e-6792-76ad-4ea783521c50"/>
               </valueReference>
            </extension>
            <status value="final"/>
            <code>
               <text value="Test Components - Accelerated 40C etc - 3 Months (X)"/>
            </code>
            <subject>
                    <!--Medication/medication-batch-information-drug-pq-ex1-->
               <reference value="Medication/7ef62d57-7cc6-9211-66d6-abc7e096093c"/>
            </subject>
            <effectiveDateTime value="2023-01-01T12:00:00Z"/>
            <performer>
					<!--Organization/tester-->
               <reference value="Organization/e3d2bc19-2f10-2b4d-1741-e4135fe612a9"/>
            </performer>
            <specimen>
                    <!--Specimen/stabilityInitialAcc-3-->
               <reference value="Specimen/8a7771db-5cc0-33f8-966a-b2f792bf5785"/>
            </specimen>
            <hasMember>
               <reference value="#Accelerated40C-3-1-Description"/>
            </hasMember>
            <hasMember>
               <reference value="#Accelerated40C-3-1-Degradation-imp1"/>
            </hasMember>
            <hasMember>
               <reference value="#Accelerated40C-3-1-Degradation-imp2"/>
            </hasMember>
            <hasMember>
               <reference value="#Accelerated40C-3-1-Degradation-imp3"/>
            </hasMember>
            <hasMember>
               <reference value="#Accelerated40C-3-1-Degradation-impUnspecified"/>
            </hasMember>
            <hasMember>
               <reference value="#Accelerated40C-3-1-Degradation-impTotal"/>
            </hasMember>
            <hasMember>
               <reference value="#Accelerated40C-3-1-Water"/>
            </hasMember>
            <hasMember>
               <reference value="#Accelerated40C-3-1-Microbiological"/>
            </hasMember>
            <hasMember>
               <reference value="#Accelerated40C-3-1-Uniformity"/>
            </hasMember>
         </Observation>
      </resource>
   </entry>
   <!-- Section 8 - Batch or Lot Information (batch 1 of 3) -->
   <entry>
      <fullUrl value="urn:uuid:7ef62d57-7cc6-9211-66d6-abc7e096093c"/>
      <resource>
         <Medication>
                <!-- <id value="medication-actual-batch"/> -->
                <!--medication-batch-information-pq-ex1-->
            <id value="7ef62d57-7cc6-9211-66d6-abc7e096093c"/>
            <meta>
               <profile value="http://hl7.org/fhir/uv/pharm-quality/StructureDefinition/Medication-batch-information-drug-pq"/>
            </meta>
            <!--extension url="http://nprogram.co.uk/fhir/extension/exampleFileName">
                    <valueString value="medication/{id}.xml"/>
                </extension-->
            <code>
               <extension url="http://hl7.org/fhir/uv/pharm-quality/StructureDefinition/Extension-medication-definition-pq">
                  <valueReference> <!-- todo consider change this be the MID? --> 
                            <!--MedicinalProductDefinition/medicinalproductdefinition-drug-product-pq-ex1-->
                     <reference value="MedicinalProductDefinition/a0694a7a-aafa-4cbe-8135-c788a9a4d3d5"/>
                     <!--reference value="urn:uuid:a0694a7a-aafa-4cbe-8135-c788a9a4d3d5"/-->
                  </valueReference>
               </extension>
            </code>
            <batch>
               <extension url="http://hl7.org/fhir/StructureDefinition/medication-manufacturingBatch">
                  <extension url="http://hl7.org/fhir/uv/pharm-quality/StructureDefinition/Extension-batch-release-date-pq">
                     <valueDateTime value="2019-09-08"/>
                     <!-- #171 -->
                  </extension>
                  <extension url="http://hl7.org/fhir/uv/pharm-quality/StructureDefinition/Extension-batch-substance-batch-pq">
                     <valueReference>
                    		    <!--Substance/substance-drug-pq-ex1-->
                        <reference value="Substance/fc078762-81c5-5656-9744-13c7ad1e595b"/>
                     </valueReference>
                  </extension>
                  <extension url="manufacturingDate"> <!-- #157 -->
                     <valueDateTime value="2020-06"/>
                  </extension>
                  <extension url="http://hl7.org/fhir/uv/pharm-quality/StructureDefinition/Extension-packaging-date-pq"> <!-- #159 -->
                     <valueDateTime value="2020-08"/>
                  </extension>
                  <extension url="http://hl7.org/fhir/uv/pharm-quality/StructureDefinition/Extension-packaging-site-pq">
                     <valueReference>
                                <!--Organization/packaging-->
                        <reference value="Organization/2dd49242-4bf1-9ec1-5f1e-22ba8d4d5ccc"/>
                     </valueReference>
                  </extension>
                  <extension url="batchQuantity">
                     <valueQuantity>
                                <!-- #26 --><!-- #155 --><!-- need to see if one of these needs changing -->
                        <value value="100100"/>
                        <unit value="tablets"/>
                     </valueQuantity>
                  </extension>
                  <extension url="http://hl7.org/fhir/uv/pharm-quality/StructureDefinition/Extension-actual-yield-pq">
                     <valueQuantity> <!-- #160 -->
                        <value value="4.8"/>
                        <unit value="kg"/>
                     </valueQuantity>
                  </extension>
                  <extension url="batchUtilization"> <!-- #159 -->
                     <valueCodeableConcept>
                        <coding>
                           <system value="http://temp.hl7.org/fhir/us/pq-cmc/CodeSystem/pqcmc-batch-utilization-terminology"/>
                           <code value="C133990"/>
                           <display value="Commercial"/>
                           <!-- could also be C185328 Stability Study? -->
                        </coding>
                        <text value="Production"/>
                     </valueCodeableConcept>
                  </extension>
                  <extension url="assignedManufacturer">
                     <valueReference> <!-- #158 -->
                            	<!--Organization/organization-drug-pq-ex1-->
                        <reference value="Organization/49d2f0c0-4b28-9271-8aaf-2996a8b9739c"/>
                     </valueReference>
                  </extension>
                  <extension url="container">
                     <extension url="type">
                        <valueCodeableConcept>
                           <text value="100 cc HDPE Bottle 2 g desiccant"/>
                        </valueCodeableConcept>
                     </extension>
                     <extension url="closureSystemDescription">
                        <valueString value="Standard closure"/>
                     </extension>
                  </extension>
               </extension>
               <!-- #153 -->
               <lotNumber value="33445"/>
            </batch>
         </Medication>
      </resource>
   </entry>
   <!-- Section 8 - Batch or Lot Information (another batch 2 of 3) -->
   <entry>
      <fullUrl value="urn:uuid:8306cfc5-158f-1a53-a683-048b226060d9"/>
      <resource>
         <Medication>
                <!--medication-actual-batch-2-->
            <id value="8306cfc5-158f-1a53-a683-048b226060d9"/>
            <code>
               <extension url="http://hl7.org/fhir/uv/pharm-quality/StructureDefinition/Extension-medication-definition-pq">
                  <valueReference>
                            <!--MedicinalProductDefinition/medicinalproductdefinition-drug-product-pq-ex1-->
                     <reference value="MedicinalProductDefinition/a0694a7a-aafa-4cbe-8135-c788a9a4d3d5"/>
                  </valueReference>
               </extension>
            </code>
            <batch>
               <extension url="http://hl7.org/fhir/StructureDefinition/medication-manufacturingBatch">
                  <extension url="http://hl7.org/fhir/uv/pharm-quality/StructureDefinition/Extension-batch-release-date-pq">
                     <valueDateTime value="2019-09-08"/>
                  </extension>
                  <extension url="http://hl7.org/fhir/uv/pharm-quality/StructureDefinition/Extension-batch-substance-batch-pq">
                     <valueReference>
                    			<!--Substance/actual-batch-substance-2-->
                        <reference value="Substance/cb31d747-2338-88d5-342c-8e9c097e4dad"/>
                     </valueReference>
                  </extension>
                  <extension url="manufacturingDate">
                     <valueDateTime value="2020-06"/>
                  </extension>
                  <extension url="http://hl7.org/fhir/uv/pharm-quality/StructureDefinition/Extension-packaging-date-pq">
                     <valueDateTime value="2020-08"/>
                  </extension>
                  <extension url="http://hl7.org/fhir/uv/pharm-quality/StructureDefinition/Extension-packaging-site-pq">
                     <valueReference>
                                <!--Organization/packaging-->
                        <reference value="Organization/2dd49242-4bf1-9ec1-5f1e-22ba8d4d5ccc"/>
                     </valueReference>
                  </extension>
                  <extension url="batchQuantity">
                     <valueQuantity>
                        <value value="100050"/>
                        <unit value="tablets"/>
                     </valueQuantity>
                  </extension>
                  <extension url="http://hl7.org/fhir/uv/pharm-quality/StructureDefinition/Extension-actual-yield-pq">
                     <valueQuantity>
                        <value value="4.8"/>
                        <unit value="kg"/>
                     </valueQuantity>
                  </extension>
                  <extension url="batchUtilization">
                     <valueCodeableConcept>
                        <coding>
                           <system value="http://temp.hl7.org/fhir/us/pq-cmc/CodeSystem/pqcmc-batch-utilization-terminology"/>
                           <code value="C133990"/>
                           <display value="Commercial"/>
                           <!-- could also be C185328 Stability Study? -->
                        </coding>
                        <text value="Production"/>
                     </valueCodeableConcept>
                  </extension>
                  <extension url="assignedManufacturer">
                     <valueReference>
                                <!--Organization/manufacturer-->
                        <reference value="Organization/033ce81d-5f0d-7a3e-93d3-fc64e122a1fd"/>
                     </valueReference>
                  </extension>
                  <extension url="container">
                     <extension url="type">
                        <valueCodeableConcept>
                           <text value="100 cc HDPE Bottle 2 g desiccant"/>
                        </valueCodeableConcept>
                     </extension>
                  </extension>
               </extension>
               <lotNumber value="33446"/>
            </batch>
         </Medication>
      </resource>
   </entry>
   <!-- Section 8 - Batch or Lot Information (another batch 3 of 3) -->
   <entry>
      <fullUrl value="urn:uuid:f54d4666-7ae3-4e30-8c5a-6d13838c4f3b"/>
      <resource>
         <Medication>
                <!--medication-actual-batch-3-->
            <id value="f54d4666-7ae3-4e30-8c5a-6d13838c4f3b"/>
            <code>
               <extension url="http://hl7.org/fhir/uv/pharm-quality/StructureDefinition/Extension-medication-definition-pq">
                  <valueReference>
                            <!--MedicinalProductDefinition/medicinalproductdefinition-drug-product-pq-ex1-->
                     <reference value="MedicinalProductDefinition/a0694a7a-aafa-4cbe-8135-c788a9a4d3d5"/>
                  </valueReference>
               </extension>
            </code>
            <batch>
               <extension url="http://hl7.org/fhir/StructureDefinition/medication-manufacturingBatch">
                  <extension url="http://hl7.org/fhir/uv/pharm-quality/StructureDefinition/Extension-batch-release-date-pq">
                     <valueDateTime value="2019-09-08"/>
                  </extension>
                  <extension url="http://hl7.org/fhir/uv/pharm-quality/StructureDefinition/Extension-batch-substance-batch-pq">
                     <valueReference>
                    			<!--Substance/actual-batch-substance-3-->
                        <reference value="Substance/1551f97b-6f6d-825e-1fb3-44b0b090808c"/>
                     </valueReference>
                  </extension>
                  <extension url="manufacturingDate">
                     <valueDateTime value="2020-06"/>
                  </extension>
                  <extension url="http://hl7.org/fhir/uv/pharm-quality/StructureDefinition/Extension-packaging-date-pq">
                     <valueDateTime value="2020-08"/>
                  </extension>
                  <extension url="http://hl7.org/fhir/uv/pharm-quality/StructureDefinition/Extension-packaging-site-pq">
                     <valueReference>
                                <!--Organization/packaging-->
                        <reference value="Organization/2dd49242-4bf1-9ec1-5f1e-22ba8d4d5ccc"/>
                     </valueReference>
                  </extension>
                  <extension url="batchQuantity">
                     <valueQuantity>
                        <value value="100125"/>
                        <unit value="tablets"/>
                     </valueQuantity>
                  </extension>
                  <extension url="http://hl7.org/fhir/uv/pharm-quality/StructureDefinition/Extension-actual-yield-pq">
                     <valueQuantity>
                        <value value="4.8"/>
                        <unit value="kg"/>
                     </valueQuantity>
                  </extension>
                  <extension url="batchUtilization">
                     <valueCodeableConcept>
                        <coding>
                           <system value="http://temp.hl7.org/fhir/us/pq-cmc/CodeSystem/pqcmc-batch-utilization-terminology"/>
                           <code value="C133990"/>
                           <display value="Commercial"/>
                           <!-- could also be C185328 Stability Study? -->
                        </coding>
                        <text value="Production"/>
                     </valueCodeableConcept>
                  </extension>
                  <extension url="assignedManufacturer">
                     <valueReference>
                                <!--Organization/manufacturer-->
                        <reference value="Organization/033ce81d-5f0d-7a3e-93d3-fc64e122a1fd"/>
                     </valueReference>
                  </extension>
                  <extension url="container">
                     <extension url="type">
                        <valueCodeableConcept>
                           <text value="100 cc HDPE Bottle 2 g desiccant"/>
                        </valueCodeableConcept>
                     </extension>
                  </extension>
               </extension>
               <lotNumber value="33447"/>
            </batch>
         </Medication>
      </resource>
   </entry>
   <!-- Section 4.1 - Manufacturer -->
   <entry>
      <fullUrl value="urn:uuid:033ce81d-5f0d-7a3e-93d3-fc64e122a1fd"/>
      <resource>
         <Organization>
                <!--manufacturer-->
            <id value="033ce81d-5f0d-7a3e-93d3-fc64e122a1fd"/>
            <identifier>
                    <!-- FDA establishment identifier -->
               <system value="urn:oid:2.16.840.1.113883.4.82"/>
               <value value="3010027650"/>
            </identifier>
            <name value="AAA Pharmaceutical, Inc."/>
            <!--contact>
                    <address></address>
                </contact-->
            <contact>
               <address> <!-- todo change to be contact/address -->
                  <line value="681 Main Street"/>
                  <city value="Lumberton"/>
                  <state value="New Jersey"/>
                  <postalCode value="08048"/>
                  <country value="USA"/>
               </address>
            </contact>
         </Organization>
      </resource>
   </entry>
   <entry>
      <fullUrl value="urn:uuid:2dd49242-4bf1-9ec1-5f1e-22ba8d4d5ccc"/>
      <resource>
         <Organization>
                <!--packaging-->
            <id value="2dd49242-4bf1-9ec1-5f1e-22ba8d4d5ccc"/>
            <name value="MySite"/>
         </Organization>
      </resource>
   </entry>
   <!-- Section 4.2 - Testing Site -->
   <entry>
      <fullUrl value="urn:uuid:e3d2bc19-2f10-2b4d-1741-e4135fe612a9"/>
      <resource>
         <Organization>
                <!--tester-->
            <id value="e3d2bc19-2f10-2b4d-1741-e4135fe612a9"/>
            <identifier>
               <system value="urn:oid:2.16.840.1.113883.4.82"/>
               <value value="3007270600"/>
               <!-- could also use assigner here, for #74 -->
            </identifier>
            <name value="Advanced Analytical Testing Laboratories Inc."/>
            <contact>
               <address>
                  <line value="30 Silverline Drive"/>
                  <city value="North Brunswick"/>
                  <state value="New Jersey"/>
                  <postalCode value="08902"/>
                  <country value="USA"/>
               </address>
            </contact>
         </Organization>
      </resource>
   </entry>
   <!-- MedicinalProductDefinition - the main resource in any product scenario -->
   <entry>
      <fullUrl value="urn:uuid:a0694a7a-aafa-4cbe-8135-c788a9a4d3d5"/>
      <resource>
            <!-- Section 1.1 - DP Identification -->
         <MedicinalProductDefinition>
                <!-- <id value="product"/> -->
                <!--medicinalproductdefinition-drug-product-pq-ex1-->
            <id value="a0694a7a-aafa-4cbe-8135-c788a9a4d3d5"/>
            <meta>
               <profile value="http://hl7.org/fhir/uv/pharm-quality/StructureDefinition/MedicinalProductDefinition-drug-product-pq"/>
            </meta>
            <description value="Textual description of the product"/>
            <combinedPharmaceuticalDoseForm>
               <coding>
                  <system value="https://spor.ema.europa.eu/v1/lists/200000000004"/>
                  <code value="100000073667"/>
                  <display value="Gastro-resistant tablet"/>
               </coding>
            </combinedPharmaceuticalDoseForm>
            <route>
               <coding>
                  <system value="https://spor.ema.europa.eu/v1/lists/100000073345"/>
                  <code value="100000073619"/>
                  <display value="Oral use"/>
               </coding>
            </route>
            <name>
               <productName value="Stelbat Tablets, 20mg"/>
               <type>
                  <coding>
                     <system value="http://accumulus.org/fhir/code/productNameType"/>
                     <code value="1234"/>
                     <display value="Proprietary"/>
                  </coding>
               </type>
               <part>
                  <part value="20mg"/>
                  <type>
                     <coding>
                        <system value="http://hl7.org/fhir/medicinal-product-name-part-type"/>
                        <code value="StrengthPart"/>
                        <display value="Strength part"/>
                     </coding>
                  </type>
               </part>
            </name>
         </MedicinalProductDefinition>
      </resource>
   </entry>
   <entry>
      <fullUrl value="urn:uuid:a0694a7a-aafa-4cbe-8135-c788a9a4d3d6"/>
      <!-- manual correction of dupe -->
      <resource>
         <Ingredient>
				<!--id value="productIngredient"/-->
			    <!--Ingredient-drug-pq-ex1-->
            <id value="a0694a7a-aafa-4cbe-8135-c788a9a4d3d6"/>
            <meta>
               <profile value="http://hl7.org/fhir/uv/pharm-quality/StructureDefinition/Ingredient-drug-pq"/>
            </meta>
            <status value="active"/>
            <for>
				    <!--reference value="MedicinalProductDefinition/product"/-->
				    <!--MedicinalProductDefinition/medicinalproductdefinition-drug-product-pq-ex1-->
               <reference value="MedicinalProductDefinition/a0694a7a-aafa-4cbe-8135-c788a9a4d3d5"/>
            </for>
            <role>
               <coding>
                  <system value="http://hl7.org/fhir/ingredient-role"/>
                  <code value="100000072072"/>
                  <display value="Active"/>
               </coding>
            </role>
            <substance>
               <code>
                  <reference>
						    <!--SubstanceDefinition/substancedefinition-component-substance-drug-pq-ex1-->
                     <reference value="SubstanceDefinition/57a9af63-315d-1585-a261-0e337b289390"/>
                  </reference>
               </code>
            </substance>
         </Ingredient>
      </resource>
   </entry>
   <entry>
      <fullUrl value="urn:uuid:57a9af63-315d-1585-a261-0e337b289390"/>
      <resource>
         <SubstanceDefinition>
        	    <!--substancedefinition-component-substance-drug-pq-ex1-->
            <id value="57a9af63-315d-1585-a261-0e337b289390"/>
            <meta>
               <profile value="http://hl7.org/fhir/uv/pharm-quality/StructureDefinition/SubstanceDefinition-component-substance-drug-pq"/>
            </meta>
            <!--extension url="http://nprogram.co.uk/fhir/extension/exampleFileName">
        	        <valueString value="substancedefinition/{id}.xml"/>
        	    </extension-->
            <manufacturer>
        		    <!--Organization/organization-drug-pq-ex1-->
               <reference value="Organization/49d2f0c0-4b28-9271-8aaf-2996a8b9739c"/>
            </manufacturer>
            <name>
               <name value="Stelbatolol"/>
               <!-- #4 -->
            </name>
         </SubstanceDefinition>
      </resource>
   </entry>
   <entry>
      <fullUrl value="urn:uuid:49d2f0c0-4b28-9271-8aaf-2996a8b9739c"/>
      <resource>
         <Organization>
			    <!--id value="substance-manufacturer"/-->
			    <!--organization-drug-pq-ex1-->
            <id value="49d2f0c0-4b28-9271-8aaf-2996a8b9739c"/>
            <meta>
               <profile value="http://hl7.org/fhir/uv/pharm-quality/StructureDefinition/Organization-drug-pq"/>
            </meta>
            <identifier>
					<!-- FDA establishment identifier -->
               <system value="urn:oid:2.16.840.1.113883.4.82"/>
               <value value="3003040516"/>
            </identifier>
            <name value="AAA Molybdenum Products, Inc."/>
            <contact>
               <address>
                  <line value="7233 W 116th Pl"/>
                  <line value="Ste C"/>
                  <city value="Broomfield"/>
                  <state value="Colorado"/>
                  <postalCode value="80020"/>
                  <country value="USA"/>
               </address>
            </contact>
         </Organization>
      </resource>
   </entry>
   <entry>
      <fullUrl value="urn:uuid:fc078762-81c5-5656-9744-13c7ad1e595b"/>
      <resource>
         <Substance>
			    <!--<id value="actual-batch-substance"/>-->
			    <!--substance-drug-pq-ex1-->
            <id value="fc078762-81c5-5656-9744-13c7ad1e595b"/>
            <meta>
               <profile value="http://hl7.org/fhir/uv/pharm-quality/StructureDefinition/Substance-drug-pq"/>
            </meta>
            <!--extension url="http://nprogram.co.uk/fhir/extension/exampleFileName">
			        <valueString value="substance/{id}.xml"/>
			    </extension-->
            <extension url="http://hl7.org/fhir/StructureDefinition/medication-manufacturingBatch">
               <extension url="http://hl7.org/fhir/uv/pharm-quality/StructureDefinition/Extension-batch-release-date-pq">
                  <valueDateTime value="2019-09-08"/>
                  <!-- #173 -->
               </extension>
               <extension url="http://hl7.org/fhir/uv/pharm-quality/StructureDefinition/Extension-batch-retest-date-pq">
                  <valueDateTime value="2022-09-08"/>
                  <!-- #221 -->
               </extension>
               <extension url="manufacturingDate">
                  <valueDateTime value="2019-09-07"/>
                  <!-- #159 -->
               </extension>
               <extension url="batchQuantity"> <!-- #157 -->
                  <valueQuantity>
                     <value value="5"/>
                     <unit value="kg"/>
                     <!-- #158 -->
                  </valueQuantity>
               </extension>
               <extension url="http://hl7.org/fhir/uv/pharm-quality/StructureDefinition/Extension-actual-yield-pq">
                  <valueQuantity>
                     <value value="4.8"/>
                     <unit value="kg"/>
                  </valueQuantity>
               </extension>
               <extension url="batchUtilization"><!-- #161 -->
                  <valueCodeableConcept>
                     <coding>
                        <system value="http://temp.hl7.org/fhir/us/pq-cmc/CodeSystem/pqcmc-batch-utilization-terminology"/>
                        <code value="C133991"/>
                        <display value="Development"/>
                     </coding>
                  </valueCodeableConcept>
               </extension>
               <extension url="assignedManufacturer"> <!-- #160 -->
                  <valueReference>
    					    <!--Organization/organization-drug-pq-ex1-->
                     <reference value="Organization/49d2f0c0-4b28-9271-8aaf-2996a8b9739c"/>
                  </valueReference>
               </extension>
            </extension>
            <identifier>
               <value value="CAT1"/>
               <!-- #155 -->
            </identifier>
            <instance value="true"/>
            <code>
               <reference>
			            <!--SubstanceDefinition/substancedefinition-component-substance-drug-pq-ex1-->
                  <reference value="SubstanceDefinition/57a9af63-315d-1585-a261-0e337b289390"/>
               </reference>
            </code>
         </Substance>
      </resource>
   </entry>
   <entry>
      <fullUrl value="urn:uuid:cb31d747-2338-88d5-342c-8e9c097e4dad"/>
      <resource>
         <Substance>
				<!--actual-batch-substance-2-->
            <id value="cb31d747-2338-88d5-342c-8e9c097e4dad"/>
            <extension url="http://hl7.org/fhir/StructureDefinition/medication-manufacturingBatch">
               <extension url="http://hl7.org/fhir/uv/pharm-quality/StructureDefinition/Extension-batch-release-date-pq">
                  <valueDateTime value="2019-09-08"/>
                  <!-- #173 -->
               </extension>
               <extension url="http://hl7.org/fhir/uv/pharm-quality/StructureDefinition/Extension-batch-retest-date-pq">
                  <valueDateTime value="2022-09-08"/>
                  <!-- #221 -->
               </extension>
               <extension url="manufacturingDate">
                  <valueDateTime value="2019-09-07"/>
                  <!-- #159 -->
               </extension>
               <extension url="batchQuantity"> <!-- #157 -->
                  <valueQuantity>
                     <value value="5"/>
                     <unit value="kg"/>
                     <!-- #158 -->
                  </valueQuantity>
               </extension>
               <extension url="http://hl7.org/fhir/uv/pharm-quality/StructureDefinition/Extension-actual-yield-pq">
                  <valueQuantity>
                     <value value="4.8"/>
                     <unit value="kg"/>
                  </valueQuantity>
               </extension>
               <extension url="batchUtilization"><!-- #161 -->
                  <valueCodeableConcept>
                     <coding>
                        <system value="http://temp.hl7.org/fhir/us/pq-cmc/CodeSystem/pqcmc-batch-utilization-terminology"/>
                        <code value="C133991"/>
                        <display value="Development"/>
                     </coding>
                  </valueCodeableConcept>
               </extension>
               <extension url="assignedManufacturer"> <!-- #160 -->
                  <valueReference>
						    <!--Organization/organization-drug-pq-ex1-->
                     <reference value="Organization/49d2f0c0-4b28-9271-8aaf-2996a8b9739c"/>
                  </valueReference>
               </extension>
            </extension>
            <identifier>
               <value value="CAT2"/>
            </identifier>
            <instance value="true"/>
            <code>
               <reference>
			            <!--SubstanceDefinition/substancedefinition-component-substance-drug-pq-ex1-->
                  <reference value="SubstanceDefinition/57a9af63-315d-1585-a261-0e337b289390"/>
               </reference>
            </code>
         </Substance>
      </resource>
   </entry>
   <entry>
      <fullUrl value="urn:uuid:1551f97b-6f6d-825e-1fb3-44b0b090808c"/>
      <resource>
         <Substance>
				<!--actual-batch-substance-3-->
            <id value="1551f97b-6f6d-825e-1fb3-44b0b090808c"/>
            <extension url="http://hl7.org/fhir/StructureDefinition/medication-manufacturingBatch">
               <extension url="http://hl7.org/fhir/uv/pharm-quality/StructureDefinition/Extension-batch-release-date-pq">
                  <valueDateTime value="2019-09-08"/>
                  <!-- #173 -->
               </extension>
               <extension url="http://hl7.org/fhir/uv/pharm-quality/StructureDefinition/Extension-batch-retest-date-pq">
                  <valueDateTime value="2022-09-08"/>
                  <!-- #221 -->
               </extension>
               <extension url="manufacturingDate">
                  <valueDateTime value="2019-09-07"/>
                  <!-- #159 -->
               </extension>
               <extension url="batchQuantity"> <!-- #157 -->
                  <valueQuantity>
                     <value value="5"/>
                     <unit value="kg"/>
                     <!-- #158 -->
                  </valueQuantity>
               </extension>
               <extension url="http://hl7.org/fhir/uv/pharm-quality/StructureDefinition/Extension-actual-yield-pq">
                  <valueQuantity>
                     <value value="4.8"/>
                     <unit value="kg"/>
                  </valueQuantity>
               </extension>
               <extension url="batchUtilization"><!-- #161 -->
                  <valueCodeableConcept>
                     <coding>
                        <system value="http://temp.hl7.org/fhir/us/pq-cmc/CodeSystem/pqcmc-batch-utilization-terminology"/>
                        <code value="C133991"/>
                        <display value="Development"/>
                     </coding>
                  </valueCodeableConcept>
               </extension>
               <extension url="assignedManufacturer"> <!-- #160 -->
                  <valueReference>
						    <!--Organization/organization-drug-pq-ex1-->
                     <reference value="Organization/49d2f0c0-4b28-9271-8aaf-2996a8b9739c"/>
                  </valueReference>
               </extension>
            </extension>
            <identifier>
               <value value="CAT3"/>
               <!-- #155 -->
            </identifier>
            <instance value="true"/>
            <code>
               <reference>
			            <!--SubstanceDefinition/substancedefinition-component-substance-drug-pq-ex1-->
                  <reference value="SubstanceDefinition/57a9af63-315d-1585-a261-0e337b289390"/>
               </reference>
            </code>
         </Substance>
      </resource>
   </entry>
</Bundle>
