<?xml version="1.0" encoding="UTF-8"?>
<!-- Substance Batch Analysis -->
<!-- Based on file: Accumulus FHIR Substance Example - Batch Analysis, posted on 05-31-2023 -->
<!-- For this example, changed <system value="http://unitsofmeasure.org"/> to <system value="http://dummy.unitsofmeasure.org"/>-->
<!-- For this example, changed <system value="http://loinc.org"/> to <system value="http://dummy.loinc.org"/>-->
<!-- For this example, changed "http://hl7.org/fhir/us/pq-cmc/CodeSystem/pqcmc-batch-utilization-terminology" to "http://temp.hl7.org/fhir/us/pq-cmc/CodeSystem/pqcmc-batch-utilization-terminology"/>-->
<Bundle xmlns="http://hl7.org/fhir">
   <id value="bundle-batch-analysis-dxpq-ex2-sub"/>
   <!--   <id value="8729468c-33fb-4f2d-a738-4306e4410a01"/>-->
   <meta>
      <profile value="http://hl7.org/fhir/uv/dx-pq/StructureDefinition/Bundle-batch-analysis-dxpq"/>
      <!--      <profile value="http://accumulus.org/fhir/dx-cmc/batch-analysis"/>-->
   </meta>
   <type value="collection"/>
   <entry>
      <fullUrl value="https://www.example.org/PlanDefinition/specificationProtocol"/>
      <resource>
         <PlanDefinition>
            <id value="specificationProtocol"/>
            <title value="S.4.4 BATCH ANALYSIS"/>
            <status value="active"/>
            <subjectReference>
               <reference value="SubstanceDefinition/substance1"/>
            </subjectReference>
            <description value="Narrative description of analysis"/>
            <action>
               <!-- this is then entire thing -->
               <title value="Batch Results for Drug Substance"/>
               <code>
                  <text value="Overall set of actions"/>
               </code>
               <action>
                  <code>
                     <text value="Test"/>
                  </code>
                  <definitionCanonical value="ObservationDefinition/Description"/>
               </action>
               <action>
                  <code>
                     <text value="Test"/>
                  </code>
                  <definitionCanonical value="ObservationDefinition/Identification"/>
               </action>
               <action>
                  <code>
                     <text value="Test"/>
                  </code>
                  <definitionCanonical value="ObservationDefinition/Assay"/>
               </action>
               <action>
                  <code>
                     <text value="Test"/>
                  </code>
                  <definitionCanonical value="ObservationDefinition/Impurities"/>
               </action>
               <action>
                  <code>
                     <text value="Test"/>
                  </code>
                  <definitionCanonical value="ObservationDefinition/Mutagenic"/>
               </action>
               <action>
                  <code>
                     <text value="Test"/>
                  </code>
                  <definitionCanonical value="ObservationDefinition/Enantiomeric"/>
               </action>
               <action>
                  <code>
                     <text value="Test"/>
                  </code>
                  <definitionCanonical value="ObservationDefinition/Solvents"/>
               </action>
               <action>
                  <code>
                     <text value="Test"/>
                  </code>
                  <definitionCanonical value="ObservationDefinition/Water"/>
               </action>
               <action>
                  <code>
                     <text value="Test"/>
                  </code>
                  <definitionCanonical value="ObservationDefinition/Particles"/>
               </action>
            </action>
         </PlanDefinition>
      </resource>
   </entry>
   <entry>
      <fullUrl value="https://www.example.org/ObservationDefinition/Description"/>
      <resource>
         <ObservationDefinition>
            <id value="Description"/>
            <name value="Description"/>
            <status value="active"/>
            <code>
               <coding>
                  <system value="http://dummy.loinc.org"/>
                  <code value="XXX"/>
                  <display value="Description"/>
               </coding>
               <text value="Description"/>
            </code>
            <method>
               <text value="Visual inspection"/>
            </method>
            <qualifiedValue>
               <extension
                  url="http://hl7.org/fhir/uv/dx-pq/StructureDefinition/Extension-qualified-value-text-dxpq">
                  <!--               <extension url="http://accumulus.org/fhir/extension/qualifiedValueText">-->
                  <valueString value="A white to brown powder"/>
               </extension>
            </qualifiedValue>
         </ObservationDefinition>
      </resource>
   </entry>
   <entry>
      <fullUrl value="https://www.example.org/ObservationDefinition/Identification"/>
      <resource>
         <ObservationDefinition>
            <id value="Identification"/>
            <name value="Identification"/>
            <status value="active"/>
            <code>
               <coding>
                  <system value="http://dummy.loinc.org"/>
                  <code value="XXX"/>
                  <display value="Identification"/>
               </coding>
               <text value="Identification"/>
            </code>
            <method>
               <text value="Identification by IR spectroscopy Identification by HPLC"/>
            </method>
            <qualifiedValue>
               <extension
                  url="http://hl7.org/fhir/uv/dx-pq/StructureDefinition/Extension-qualified-value-text-dxpq">
                  <!--               <extension url="http://accumulus.org/fhir/extension/qualifiedValueText">-->
                  <valueString value="Conforms with reference"/>
               </extension>
            </qualifiedValue>
         </ObservationDefinition>
      </resource>
   </entry>
   <entry>
      <fullUrl value="https://www.example.org/ObservationDefinition/Assay"/>
      <resource>
         <ObservationDefinition>
            <id value="Assay"/>
            <name value="Assay"/>
            <status value="active"/>
            <code>
               <coding>
                  <system value="http://dummy.loinc.org"/>
                  <code value="XXX"/>
                  <display value="Assay"/>
               </coding>
               <text value="Assay"/>
            </code>
            <method>
               <text value="Assay by LC"/>
            </method>
            <qualifiedValue>
               <range>
                  <low>
                     <value value="98"/>
                     <unit value="% w/w"/>
                     <system value="http://dummy.unitsofmeasure.org"/>
                     <code value="%{w/w}"/>
                     <!-- not sure this is a correct ucum code -->
                  </low>
                  <high>
                     <value value="102"/>
                     <unit value="% w/w"/>
                     <system value="http://dummy.unitsofmeasure.org"/>
                     <code value="%{w/w}"/>
                     <!-- not sure this is a correct ucum code -->
                  </high>
               </range>
            </qualifiedValue>
         </ObservationDefinition>
      </resource>
   </entry>
   <entry>
      <fullUrl value="https://www.example.org/ObservationDefinition/Impurities"/>
      <resource>
         <ObservationDefinition>
            <id value="Impurities"/>
            <name value="Drug Substance Related Organic impurities"/>
            <status value="active"/>
            <code>
               <coding>
                  <system value="http://dummy.loinc.org"/>
                  <code value="DGP"/>
                  <display value="Drug Substance Related Organic impurities"/>
               </coding>
            </code>
            <method>
               <text value="Organic impurities by LC"/>
            </method>
            <!--            <quantitativeDetails>
               <unit>
                  <coding>
                     <system value="http://dummy.unitsofmeasure.org"/>
                     <code value="%{w/w}"/>
                     <!-\- not sure this is a correct ucum code -\->
                  </coding>
               </unit>
               <customaryUnit>
                  <coding>
                     <code value="% w/w"/>
                  </coding>
               </customaryUnit>
            </quantitativeDetails>-->
            <qualifiedValue>
               <appliesTo>
                  <!-- could be a code -->
                  <text value="Impurity 1"/>
               </appliesTo>
               <range>
                  <high>
                     <value value="0.5"/>
                     <unit value="% w/w"/>
                  </high>
               </range>
            </qualifiedValue>
            <qualifiedValue>
               <appliesTo>
                  <text value="Impurity 2"/>
               </appliesTo>
               <range>
                  <high>
                     <value value="0.5"/>
                     <unit value="% w/w"/>
                  </high>
               </range>
            </qualifiedValue>
            <qualifiedValue>
               <appliesTo>
                  <text value="Impurity 3">
                     <extension
                        url="http://hl7.org/fhir/uv/dx-pq/StructureDefinition/Extension-test-comment-dxpq">
                        <!--                     <extension url="http://accumulus.org/fhir/extension/testComment">-->
                        <valueString
                           value="Impurity 3 was included in the release specification throughout clinical development, and no longer forms a part of a commercial release specification; see Section S.4.5 Justification of Specification and Section S.2.5 Validation (PPQ) for additional data">
                           <extension url="http://hl7.org/fhir/uv/dx-pq/StructureDefinition/Extension-table-footnote-dxpq">
                           <!--<extension
                              url="http://nprogram.co.uk/fhir/extension/viewer/tableFootnote">-->
                              <valueString value="[2]"/>
                           </extension>
                        </valueString>
                     </extension>
                  </text>
               </appliesTo>
               <range>
                  <high>
                     <value value="0.5"/>
                     <unit value="% w/w"/>
                  </high>
               </range>
            </qualifiedValue>
            <qualifiedValue>
               <appliesTo>
                  <text value="Any individual unspecified impurity"/>
               </appliesTo>
               <range>
                  <high>
                     <value value="0.10"/>
                     <unit value="% w/w"/>
                  </high>
               </range>
            </qualifiedValue>
            <qualifiedValue>
               <appliesTo>
                  <text value="Total impurities"/>
               </appliesTo>
               <range>
                  <high>
                     <value value="2.0"/>
                     <unit value="% w/w"/>
                  </high>
               </range>
            </qualifiedValue>
            <component>
               <!-- are expected to have a component that says what impurity this one is -->
               <code>
                  <coding>
                     <system value="http://dummy.loinc.org"/>
                     <code value="IMP"/>
                     <display value="Impurity"/>
                  </coding>
               </code>
            </component>
         </ObservationDefinition>
      </resource>
   </entry>
   <entry>
      <fullUrl value="https://www.example.org/ObservationDefinition/Mutagenic"/>
      <resource>
         <ObservationDefinition>
            <id value="Mutagenic"/>
            <name value="Mutagenic impurities"/>
            <status value="active"/>
            <code>
               <coding>
                  <system value="http://dummy.loinc.org"/>
                  <code value="MUT"/>
                  <display value="Mutagenic impurities"/>
               </coding>
            </code>
            <method>
               <text value="Impurity 5 content by LC-MS"/>
            </method>
            <!--            <quantitativeDetails>
               <unit>
                  <coding>
                     <system value="http://dummy.unitsofmeasure.org"/>
                     <code value="ppm"/>
                  </coding>
               </unit>
               <customaryUnit>
                  <coding>
                     <code value="ppm"/>
                  </coding>
               </customaryUnit>
            </quantitativeDetails>-->
            <qualifiedValue>
               <appliesTo>
                  <!-- could be a code -->
                  <text value="Impurity - Mutagenic"/>
               </appliesTo>
               <range>
                  <high>
                     <value value="50"/>
                     <unit value="ppm"/>
                     <system value="http://dummy.unitsofmeasure.org"/>
                     <code value="ppm"/>
                  </high>
               </range>
            </qualifiedValue>
            <component>
               <!-- are expected to have a component that says what impurity this one is -->
               <code>
                  <coding>
                     <system value="http://dummy.loinc.org"/>
                     <code value="IMP"/>
                     <display value="Impurity"/>
                  </coding>
               </code>
            </component>
         </ObservationDefinition>
      </resource>
   </entry>
   <entry>
      <fullUrl value="https://www.example.org/ObservationDefinition/Enantiomeric"/>
      <resource>
         <ObservationDefinition>
            <id value="Enantiomeric"/>
            <name value="Enantiomeric purity"/>
            <status value="active"/>
            <code>
               <coding>
                  <system value="http://dummy.loinc.org"/>
                  <code value="ZZZ"/>
                  <display value="Enantiomeric purity"/>
               </coding>
               <text value="Enantiomeric purity"/>
            </code>
            <method>
               <text value="Enantiomeric purity by LC"/>
            </method>
            <qualifiedValue>
               <range>
                  <low>
                     <value value="99.6"/>
                     <unit value="%"/>
                     <system value="http://dummy.unitsofmeasure.org"/>
                     <code value="%"/>
                  </low>
               </range>
            </qualifiedValue>
         </ObservationDefinition>
      </resource>
   </entry>
   <entry>
      <fullUrl value="https://www.example.org/ObservationDefinition/Solvents"/>
      <resource>
         <ObservationDefinition>
            <id value="Solvents"/>
            <name value="Residual solvents"/>
            <status value="active"/>
            <code>
               <coding>
                  <system value="http://dummy.loinc.org"/>
                  <code value="SOL"/>
                  <display value="Residual solvents"/>
               </coding>
            </code>
            <method>
               <text value="Residual solvents by headspace GC"/>
            </method>
            <!--            <quantitativeDetails>
               <unit>
                  <coding>
                     <system value="http://dummy.unitsofmeasure.org"/>
                     <code value="%{w/w}"/>
                     <!-\- not sure this is a correct ucum code -\->
                  </coding>
               </unit>
               <customaryUnit>
                  <coding>
                     <code value="% w/w"/>
                  </coding>
               </customaryUnit>
            </quantitativeDetails>-->
            <qualifiedValue>
               <appliesTo>
                  <!-- could be a code -->
                  <text value="Solvent 1"/>
               </appliesTo>
               <range>
                  <high>
                     <value value="0.1"/>
                     <unit value="% w/w"/>
                  </high>
               </range>
            </qualifiedValue>
            <qualifiedValue>
               <appliesTo>
                  <text value="Solvent 2"/>
               </appliesTo>
               <range>
                  <high>
                     <value value="2.0"/>
                     <unit value="% w/w"/>
                  </high>
               </range>
            </qualifiedValue>
            <component>
               <!-- are expected to have a component that says what solvent this one is -->
               <code>
                  <coding>
                     <system value="http://dummy.loinc.org"/>
                     <code value="SOLV"/>
                     <display value="Solvent"/>
                  </coding>
               </code>
            </component>
         </ObservationDefinition>
      </resource>
   </entry>
   <entry>
      <fullUrl value="https://www.example.org/ObservationDefinition/Water"/>
      <resource>
         <ObservationDefinition>
            <id value="Water"/>
            <name value="Water Content"/>
            <status value="active"/>
            <code>
               <coding>
                  <system value="http://dummy.loinc.org"/>
                  <code value="WWW"/>
                  <display value="Water Content"/>
               </coding>
               <text value="Water Content"/>
            </code>
            <method>
               <text value="USP Karl Fischer titration"/>
            </method>
            <qualifiedValue>
               <range>
                  <high>
                     <value value="1.0"/>
                     <unit value="% w/w"/>
                  </high>
               </range>
            </qualifiedValue>
         </ObservationDefinition>
      </resource>
   </entry>
   <entry>
      <fullUrl value="https://www.example.org/ObservationDefinition/Particles"/>
      <resource>
         <ObservationDefinition>
            <id value="Particles"/>
            <name value="Particle size distribution">
               <extension
                  url="http://hl7.org/fhir/uv/dx-pq/StructureDefinition/Extension-test-comment-dxpq">
                  <!--               <extension url="http://accumulus.org/fhir/extension/testComment">-->
                  <valueString
                     value="Particle Size Distribution was included in the release specification throughout clinical development, and no longer forms a part of the commercial release specification; See Section S.4.5 Justification of Specification for data and rationale.">
                     <extension url="http://hl7.org/fhir/uv/dx-pq/StructureDefinition/Extension-table-footnote-dxpq">
                     <!--<extension url="http://nprogram.co.uk/fhir/extension/viewer/tableFootnote">-->
                        <valueString value="[4]"/>
                     </extension>
                  </valueString>
               </extension>
            </name>
            <status value="active"/>
            <code>
               <coding>
                  <system value="http://dummy.loinc.org"/>
                  <code value="PART"/>
                  <display value="Particle size distribution"/>
               </coding>
            </code>
            <method>
               <text value="Laser diffraction"/>
            </method>
            <!--            <quantitativeDetails>
               <unit>
                  <coding>
                     <system value="http://dummy.unitsofmeasure.org"/>
                     <code value="um"/>
                  </coding>
               </unit>
               <customaryUnit>
                  <coding>
                     <code value="µm"/>
                  </coding>
               </customaryUnit>
            </quantitativeDetails>-->
            <qualifiedValue>
               <appliesTo>
                  <!-- could be a code -->
                  <text value="D(v,0.9)"/>
               </appliesTo>
               <range>
                  <high>
                     <value value="319"/>
                     <unit value="µm"/>
                     <system value="http://dummy.unitsofmeasure.org"/>
                     <code value="um"/>
                  </high>
               </range>
            </qualifiedValue>
            <qualifiedValue>
               <appliesTo>
                  <!-- could be a code -->
                  <text value="D(v,0.5)"/>
               </appliesTo>
               <range>
                  <high>
                     <value value="145"/>
                     <unit value="µm"/>
                     <system value="http://dummy.unitsofmeasure.org"/>
                     <code value="um"/>
                  </high>
               </range>
            </qualifiedValue>
            <qualifiedValue>
               <appliesTo>
                  <!-- could be a code -->
                  <text value="D(v,0.1)"/>
               </appliesTo>
               <range>
                  <high>
                     <value value="20"/>
                     <unit value="µm"/>
                     <system value="http://dummy.unitsofmeasure.org"/>
                     <code value="um"/>
                  </high>
               </range>
            </qualifiedValue>
            <component>
               <!-- are expected to have a component that says what solvent this one is -->
               <code>
                  <coding>
                     <system value="http://dummy.loinc.org"/>
                     <code value="PARTS"/>
                     <display value="Particle size"/>
                  </coding>
               </code>
            </component>
         </ObservationDefinition>
      </resource>
   </entry>
   <entry>
      <fullUrl value="https://www.example.org/Substance/actual-batch-substance"/>
      <resource>
         <Substance>
            <id value="actual-batch-substance"/>
            <extension url="http://hl7.org/fhir/StructureDefinition/medication-manufacturingBatch">
               <extension
                  url="http://hl7.org/fhir/uv/dx-pq/StructureDefinition/Extension-batch-release-date-dxpq">
                  <!--               <extension url="http://accumulus.org/fhir/extension/batchReleaseDate">-->
                  <valueDateTime value="2019-09-08"/>
                  <!-- #173 -->
               </extension>
               <extension
                  url="http://hl7.org/fhir/uv/dx-pq/StructureDefinition/Extension-batch-retest-date-dxpq">
                  <!--               <extension url="http://accumulus.org/fhir/extension/batchRetestDate">-->
                  <valueDateTime value="2022-09-08"/>
                  <!-- #221 -->
               </extension>
               <extension url="manufacturingDate">
                  <valueDateTime value="2020-01"/>
                  <!-- #157 -->
               </extension>
               <extension url="batchQuantity">
                  <!-- #157 -->
                  <valueQuantity>
                     <value value="120"/>
                     <unit value="kg"/>
                     <!-- #158 -->
                  </valueQuantity>
               </extension>
               <extension
                  url="http://hl7.org/fhir/uv/dx-pq/StructureDefinition/Extension-actual-yield-dxpq">
                  <!--                  <extension url="http://accumulus.org/fhir/extension/actualYield">-->
                  <valueQuantity>
                     <value value="4.8"/>
                     <unit value="kg"/>
                  </valueQuantity>
               </extension>
               <extension url="batchUtilization">
                  <!-- #161 -->
                  <valueCodeableConcept>
                     <coding>
                        <extension url="http://hl7.org/fhir/uv/dx-pq/StructureDefinition/Extension-instance-comment-dxpq">
<!--                        <extension url="http://nprogram.co.uk/fhir/extension/instanceComment">-->
                           <valueString
                              value="Comment: This has a value set defined in PQ/CMC but no code system"
                           />
                        </extension>
                        <system
                           value="http://temp.hl7.org/fhir/us/pq-cmc/CodeSystem/pqcmc-batch-utilization-terminology"/>
                        <code value="C133990"/>
                        <display value="Commercial"/>
                        <!-- could also be C185328 Stability Study? -->
                     </coding>
                     <text value="Production"/>
                  </valueCodeableConcept>
               </extension>
               <extension url="assignedManufacturer">
                  <!-- #160 -->
                  <valueReference>
                     <reference value="Organization/substance-manufacturer"/>
                  </valueReference>
               </extension>
            </extension>
            <identifier>
               <value value="CAT1"/>
               <!-- #155 -->
            </identifier>
            <instance value="true"/>
            <code>
               <reference>
                  <reference value="SubstanceDefinition/substance1"/>
               </reference>
            </code>
         </Substance>
      </resource>
   </entry>
   <entry>
      <fullUrl value="https://www.example.org/Substance/actual-batch-substance-2"/>
      <resource>
         <Substance>
            <id value="actual-batch-substance-2"/>
            <extension url="http://hl7.org/fhir/StructureDefinition/medication-manufacturingBatch">
               <extension
                  url="http://hl7.org/fhir/uv/dx-pq/StructureDefinition/Extension-batch-release-date-dxpq">
                  <!--               <extension url="http://accumulus.org/fhir/extension/batchReleaseDate">-->
                  <valueDateTime value="2019-09-08"/>
                  <!-- #173 -->
               </extension>
               <extension
                  url="http://hl7.org/fhir/uv/dx-pq/StructureDefinition/Extension-batch-retest-date-dxpq">
                  <!--               <extension url="http://accumulus.org/fhir/extension/batchRetestDate">-->
                  <valueDateTime value="2022-09-08"/>
                  <!-- #221 -->
               </extension>
               <extension url="manufacturingDate">
                  <valueDateTime value="2020-02"/>
                  <!-- #159 -->
               </extension>
               <extension url="batchQuantity">
                  <!-- #157 -->
                  <valueQuantity>
                     <value value="120"/>
                     <unit value="kg"/>
                     <!-- #158 -->
                  </valueQuantity>
               </extension>
               <extension
                  url="http://hl7.org/fhir/uv/dx-pq/StructureDefinition/Extension-actual-yield-dxpq">
                  <!--               <extension url="http://accumulus.org/fhir/extension/actualYield">-->
                  <valueQuantity>
                     <value value="4.8"/>
                     <unit value="kg"/>
                  </valueQuantity>
               </extension>
               <extension url="batchUtilization">
                  <!-- #161 -->
                  <valueCodeableConcept>
                     <coding>
                        <extension url="http://hl7.org/fhir/uv/dx-pq/StructureDefinition/Extension-instance-comment-dxpq">
<!--                        <extension url="http://nprogram.co.uk/fhir/extension/instanceComment">-->
                           <valueString
                              value="Comment: This has a value set defined in PQ/CMC but no code system"
                           />
                        </extension>
                        <system
                           value="http://temp.hl7.org/fhir/us/pq-cmc/CodeSystem/pqcmc-batch-utilization-terminology"/>
                        <code value="C133990"/>
                        <display value="Commercial"/>
                        <!-- could also be C185328 Stability Study? -->
                     </coding>
                     <text value="Production"/>
                  </valueCodeableConcept>
               </extension>
               <extension url="assignedManufacturer">
                  <!-- #160 -->
                  <valueReference>
                     <reference value="Organization/substance-manufacturer"/>
                  </valueReference>
               </extension>
            </extension>
            <identifier>
               <value value="CAT2"/>
            </identifier>
            <instance value="true"/>
            <code>
               <reference>
                  <reference value="SubstanceDefinition/substance1"/>
               </reference>
            </code>
         </Substance>
      </resource>
   </entry>
   <entry>
      <fullUrl value="https://www.example.org/Substance/actual-batch-substance-3"/>
      <resource>
         <Substance>
            <id value="actual-batch-substance-3"/>
            <extension url="http://hl7.org/fhir/StructureDefinition/medication-manufacturingBatch">
               <extension
                  url="http://hl7.org/fhir/uv/dx-pq/StructureDefinition/Extension-batch-release-date-dxpq">
                  <!--               <extension url="http://accumulus.org/fhir/extension/batchReleaseDate">-->
                  <valueDateTime value="2019-09-08"/>
                  <!-- #173 -->
               </extension>
               <extension
                  url="http://hl7.org/fhir/uv/dx-pq/StructureDefinition/Extension-batch-retest-date-dxpq">
                  <!--               <extension url="http://accumulus.org/fhir/extension/batchRetestDate">-->
                  <valueDateTime value="2022-09-08"/>
                  <!-- #221 -->
               </extension>
               <extension url="manufacturingDate">
                  <valueDateTime value="2020-03"/>
                  <!-- #159 -->
               </extension>
               <extension url="batchQuantity">
                  <!-- #157 -->
                  <valueQuantity>
                     <value value="120"/>
                     <unit value="kg"/>
                     <!-- #158 -->
                  </valueQuantity>
               </extension>
               <extension
                  url="http://hl7.org/fhir/uv/dx-pq/StructureDefinition/Extension-actual-yield-dxpq">
                  <!--               <extension url="http://accumulus.org/fhir/extension/actualYield">-->
                  <valueQuantity>
                     <value value="4.8"/>
                     <unit value="kg"/>
                  </valueQuantity>
               </extension>
               <extension url="batchUtilization">
                  <!-- #161 -->
                  <valueCodeableConcept>
                     <coding>
                        <extension url="http://hl7.org/fhir/uv/dx-pq/StructureDefinition/Extension-instance-comment-dxpq">
<!--                        <extension url="http://nprogram.co.uk/fhir/extension/instanceComment">-->
                           <valueString
                              value="Comment: This has a value set defined in PQ/CMC but no code system"
                           />
                        </extension>
                        <system
                           value="http://temp.hl7.org/fhir/us/pq-cmc/CodeSystem/pqcmc-batch-utilization-terminology"/>
                        <code value="C133990"/>
                        <display value="Commercial"/>
                        <!-- could also be C185328 Stability Study? -->
                     </coding>
                     <text value="Production"/>
                  </valueCodeableConcept>
               </extension>
               <extension url="assignedManufacturer">
                  <!-- #160 -->
                  <valueReference>
                     <reference value="Organization/substance-manufacturer"/>
                  </valueReference>
               </extension>
            </extension>
            <identifier>
               <value value="CAT3"/>
               <!-- #155 -->
            </identifier>
            <instance value="true"/>
            <code>
               <reference>
                  <reference value="SubstanceDefinition/substance1"/>
               </reference>
            </code>
         </Substance>
      </resource>
   </entry>
   <entry>
      <fullUrl value="https://www.example.org/SubstanceDefinition/substance1"/>
      <resource>
         <SubstanceDefinition>
            <id value="substance1"/>
            <manufacturer>
               <reference value="Organization/substance-manufacturer"/>
            </manufacturer>
            <name>
               <name value="Stelbatolol"/>
               <!-- #4 -->
            </name>
         </SubstanceDefinition>
      </resource>
   </entry>
   <entry>
      <fullUrl value="https://www.example.org/Organization/substance-manufacturer"/>
      <resource>
         <Organization>
            <id value="substance-manufacturer"/>
            <identifier>
               <!-- FDA establishment identifier -->
               <system value="urn:oid:2.16.840.1.113883.4.82"/>
               <value value="3003040516"/>
            </identifier>
            <name value="AAA Molybdenum Products, Inc."/>
            <contact>
               <address>
                  <line value="7233 W 116th Pl"/>
                  <line value="Ste C"/>
                  <city value="Broomfield"/>
                  <state value="Colorado"/>
                  <postalCode value="80020"/>
                  <country value="USA"/>
               </address>
            </contact>
         </Organization>
      </resource>
   </entry>
   <!-- Diagnostic report doesn't carry much extra value but does collect all the observations -->
   <entry>
      <fullUrl value="https://www.example.org/DiagnosticReport/batchAnalysisReport"/>
      <resource>
         <DiagnosticReport>
            <!-- ideally this wants a subject, but it can only be a Medication (batch) and we have multiple. 
                     however the observations themselves do have subjects -->
            <id value="batchAnalysisReport"/>
            <extension url="http://hl7.org/fhir/StructureDefinition/workflow-triggeredBy">
               <valueReference>
                  <reference value="PlanDefinition/specificationProtocol"/>
               </valueReference>
            </extension>
            <status value="final"/>
            <code>
               <coding>
                  <system value="http://example.org/fhir/code/reportType"/>
                  <code value="111"/>
                  <display value="Batch Analysis Report"/>
               </coding>
            </code>
            <effectiveDateTime value="2020-12"/>
            <!-- start of stability test -->
            <result>
               <reference value="Observation/observationDescription"/>
            </result>
            <result>
               <reference value="Observation/observationDescription2"/>
            </result>
            <result>
               <reference value="Observation/observationDescription3"/>
            </result>
            <result>
               <reference value="Observation/observationIdentification"/>
            </result>
            <result>
               <reference value="Observation/observationIdentification2"/>
            </result>
            <result>
               <reference value="Observation/observationIdentification3"/>
            </result>
            <result>
               <reference value="Observation/observationAssay"/>
            </result>
            <result>
               <reference value="Observation/observationAssay2"/>
            </result>
            <result>
               <reference value="Observation/observationAssay3"/>
            </result>
            <result>
               <reference value="Observation/observationDegradation-imp1"/>
            </result>
            <result>
               <reference value="Observation/observationDegradation-imp1-2"/>
            </result>
            <result>
               <reference value="Observation/observationDegradation-imp1-3"/>
            </result>
            <result>
               <reference value="Observation/observationDegradation-imp2"/>
            </result>
            <result>
               <reference value="Observation/observationDegradation-imp2-2"/>
            </result>
            <result>
               <reference value="Observation/observationDegradation-imp2-3"/>
            </result>
            <result>
               <reference value="Observation/observationDegradation-imp3"/>
            </result>
            <result>
               <reference value="Observation/observationDegradation-imp3-2"/>
            </result>
            <result>
               <reference value="Observation/observationDegradation-imp3-3"/>
            </result>
            <result>
               <reference value="Observation/observationDegradation-imp-unspecified"/>
            </result>
            <result>
               <reference value="Observation/observationDegradation-imp-unspecified-2"/>
            </result>
            <result>
               <reference value="Observation/observationDegradation-imp-unspecified-3"/>
            </result>
            <result>
               <reference value="Observation/observationDegradation-imp-total"/>
            </result>
            <result>
               <reference value="Observation/observationDegradation-imp-total-2"/>
            </result>
            <result>
               <reference value="Observation/observationDegradation-imp-total-3"/>
            </result>
            <result>
               <reference value="Observation/observationDegradation-imp1"/>
            </result>
            <result>
               <reference value="Observation/observationDegradation-imp1-2"/>
            </result>
            <result>
               <reference value="Observation/observationDegradation-imp1-3"/>
            </result>
            <result>
               <reference value="Observation/observationDegradation-imp2"/>
            </result>
            <result>
               <reference value="Observation/observationDegradation-imp2-2"/>
            </result>
            <result>
               <reference value="Observation/observationDegradation-imp2-3"/>
            </result>
            <result>
               <reference value="Observation/observationDegradation-imp3"/>
            </result>
            <result>
               <reference value="Observation/observationDegradation-imp3-2"/>
            </result>
            <result>
               <reference value="Observation/observationDegradation-imp3-3"/>
            </result>
            <result>
               <reference value="Observation/observationDegradation-imp-unspecified"/>
            </result>
            <result>
               <reference value="Observation/observationDegradation-imp-unspecified-2"/>
            </result>
            <result>
               <reference value="Observation/observationDegradation-imp-unspecified-3"/>
            </result>
            <result>
               <reference value="Observation/observationDegradation-imp-total"/>
            </result>
            <result>
               <reference value="Observation/observationDegradation-imp-total-2"/>
            </result>
            <result>
               <reference value="Observation/observationDegradation-imp-total-3"/>
            </result>
            <result>
               <reference value="Observation/observationMutagenic"/>
            </result>
            <result>
               <reference value="Observation/observationMutagenic2"/>
            </result>
            <result>
               <reference value="Observation/observationMutagenic3"/>
            </result>
            <result>
               <reference value="Observation/observationEnantiomericPurity"/>
            </result>
            <result>
               <reference value="Observation/observationEnantiomericPurity2"/>
            </result>
            <result>
               <reference value="Observation/observationEnantiomericPurity3"/>
            </result>
            <result>
               <reference value="Observation/observationSolvents-sol1"/>
            </result>
            <result>
               <reference value="Observation/observationSolvents-sol1-2"/>
            </result>
            <result>
               <reference value="Observation/observationSolvents-sol1-3"/>
            </result>
            <result>
               <reference value="Observation/observationSolvents-sol2"/>
            </result>
            <result>
               <reference value="Observation/observationSolvents-sol2-2"/>
            </result>
            <result>
               <reference value="Observation/observationSolvents-sol2-3"/>
            </result>
            <result>
               <reference value="Observation/observationWater"/>
            </result>
            <result>
               <reference value="Observation/observationWater2"/>
            </result>
            <result>
               <reference value="Observation/observationWater3"/>
            </result>
            <result>
               <reference value="Observation/observationParticleSize-size1"/>
            </result>
            <result>
               <reference value="Observation/observationParticleSize-size1-2"/>
            </result>
            <result>
               <reference value="Observation/observationParticleSize-size1-3"/>
            </result>
            <result>
               <reference value="Observation/observationParticleSize-size2"/>
            </result>
            <result>
               <reference value="Observation/observationParticleSize-size2-2"/>
            </result>
            <result>
               <reference value="Observation/observationParticleSize-size2-3"/>
            </result>
            <result>
               <reference value="Observation/observationParticleSize-size3"/>
            </result>
            <result>
               <reference value="Observation/observationParticleSize-size3-2"/>
            </result>
            <result>
               <reference value="Observation/observationParticleSize-size3-3"/>
            </result>
            <conclusion value="The samples have been assessed and the conclusion is..."/>
         </DiagnosticReport>
      </resource>
   </entry>
   <entry>
      <fullUrl value="https://www.example.org/Observation/observationDescription"/>
      <resource>
         <Observation>
            <id value="observationDescription"/>
            <instantiatesReference>
               <reference value="ObservationDefinition/Description"/>
            </instantiatesReference>
            <status value="final"/>
            <code>
               <coding>
                  <system value="http://dummy.loinc.org"/>
                  <code value="XXX"/>
                  <display value="Description"/>
               </coding>
               <text value="Description"/>
            </code>
            <subject>
               <reference value="Substance/actual-batch-substance"/>
            </subject>
            <valueCodeableConcept>
               <text value="Pass"/>
            </valueCodeableConcept>
         </Observation>
      </resource>
   </entry>
   <entry>
      <fullUrl value="https://www.example.org/Observation/observationDescription2"/>
      <resource>
         <Observation>
            <id value="observationDescription2"/>
            <instantiatesReference>
               <reference value="ObservationDefinition/Description"/>
            </instantiatesReference>
            <status value="final"/>
            <code>
               <coding>
                  <system value="http://dummy.loinc.org"/>
                  <code value="XXX"/>
                  <display value="Description"/>
               </coding>
               <text value="Description"/>
            </code>
            <subject>
               <reference value="Substance/actual-batch-substance-2"/>
            </subject>
            <valueCodeableConcept>
               <text value="Pass"/>
            </valueCodeableConcept>
         </Observation>
      </resource>
   </entry>
   <entry>
      <fullUrl value="https://www.example.org/Observation/observationDescription3"/>
      <resource>
         <Observation>
            <id value="observationDescription3"/>
            <instantiatesReference>
               <reference value="ObservationDefinition/Description"/>
            </instantiatesReference>
            <status value="final"/>
            <code>
               <coding>
                  <system value="http://dummy.loinc.org"/>
                  <code value="XXX"/>
                  <display value="Description"/>
               </coding>
               <text value="Description"/>
            </code>
            <subject>
               <reference value="Substance/actual-batch-substance-3"/>
            </subject>
            <valueCodeableConcept>
               <text value="Pass"/>
            </valueCodeableConcept>
         </Observation>
      </resource>
   </entry>
   <entry>
      <fullUrl value="https://www.example.org/Observation/observationIdentification"/>
      <resource>
         <Observation>
            <id value="observationIdentification"/>
            <instantiatesReference>
               <reference value="ObservationDefinition/Identification"/>
            </instantiatesReference>
            <status value="final"/>
            <code>
               <coding>
                  <system value="http://dummy.loinc.org"/>
                  <code value="XXX"/>
                  <display value="Identification"/>
               </coding>
               <text value="Identification"/>
            </code>
            <subject>
               <reference value="Substance/actual-batch-substance"/>
            </subject>
            <valueCodeableConcept>
               <text value="Conforms"/>
            </valueCodeableConcept>
         </Observation>
      </resource>
   </entry>
   <entry>
      <fullUrl value="https://www.example.org/Observation/observationIdentification2"/>
      <resource>
         <Observation>
            <id value="observationIdentification2"/>
            <instantiatesReference>
               <reference value="ObservationDefinition/Identification"/>
            </instantiatesReference>
            <status value="final"/>
            <code>
               <coding>
                  <system value="http://dummy.loinc.org"/>
                  <code value="XXX"/>
                  <display value="Identification"/>
               </coding>
               <text value="Identification"/>
            </code>
            <subject>
               <reference value="Substance/actual-batch-substance-2"/>
            </subject>
            <valueCodeableConcept>
               <text value="Does not conform"/>
            </valueCodeableConcept>
         </Observation>
      </resource>
   </entry>
   <entry>
      <fullUrl value="https://www.example.org/Observation/observationIdentification3"/>
      <resource>
         <Observation>
            <id value="observationIdentification3"/>
            <instantiatesReference>
               <reference value="ObservationDefinition/Identification"/>
            </instantiatesReference>
            <status value="final"/>
            <code>
               <coding>
                  <system value="http://dummy.loinc.org"/>
                  <code value="XXX"/>
                  <display value="Identification"/>
               </coding>
               <text value="Identification"/>
            </code>
            <subject>
               <reference value="Substance/actual-batch-substance-3"/>
            </subject>
            <valueCodeableConcept>
               <text value="Conforms"/>
            </valueCodeableConcept>
         </Observation>
      </resource>
   </entry>
   <entry>
      <fullUrl value="https://www.example.org/Observation/observationAssay"/>
      <resource>
         <Observation>
            <id value="observationAssay"/>
            <instantiatesReference>
               <reference value="ObservationDefinition/Assay"/>
            </instantiatesReference>
            <status value="final"/>
            <code>
               <coding>
                  <system value="http://dummy.loinc.org"/>
                  <code value="XXX"/>
                  <display value="Assay"/>
               </coding>
               <text value="Assay"/>
            </code>
            <subject>
               <reference value="Substance/actual-batch-substance"/>
            </subject>
            <valueQuantity>
               <value value="94"/>
               <unit value="%"/>
               <system value="http://dummy.unitsofmeasure.org"/>
               <code value="%"/>
            </valueQuantity>
            <note>
               <text
                  value="CAT1, CAT2 and CAT3 met the clinical specification in place at time of testing; clinical specification release limit for Assay was 93% w/w; clinical specification release limit for Enantiomeric Purity was NLT 91.0%">
                  <extension url="http://hl7.org/fhir/uv/dx-pq/StructureDefinition/Extension-table-footnote-dxpq">
                  <!--<extension url="http://nprogram.co.uk/fhir/extension/viewer/tableFootnote">-->
                     <valueString value="[1]"/>
                  </extension>
               </text>
            </note>
         </Observation>
      </resource>
   </entry>
   <entry>
      <fullUrl value="https://www.example.org/Observation/observationAssay2"/>
      <resource>
         <Observation>
            <id value="observationAssay2"/>
            <instantiatesReference>
               <reference value="ObservationDefinition/Assay"/>
            </instantiatesReference>
            <status value="final"/>
            <code>
               <coding>
                  <system value="http://dummy.loinc.org"/>
                  <code value="XXX"/>
                  <display value="Assay"/>
               </coding>
               <text value="Assay"/>
            </code>
            <subject>
               <reference value="Substance/actual-batch-substance-2"/>
            </subject>
            <valueQuantity>
               <value value="95"/>
               <unit value="%"/>
               <system value="http://dummy.unitsofmeasure.org"/>
               <code value="%"/>
            </valueQuantity>
            <note>
               <text
                  value="CAT1, CAT2 and CAT3 met the clinical specification in place at time of testing; clinical specification release limit for Assay was 93% w/w; clinical specification release limit for Enantiomeric Purity was NLT 91.0%">
                  <extension url="http://hl7.org/fhir/uv/dx-pq/StructureDefinition/Extension-table-footnote-dxpq">
                  <!--<extension url="http://nprogram.co.uk/fhir/extension/viewer/tableFootnote">-->
                     <valueString value="[1]"/>
                  </extension>
               </text>
            </note>
         </Observation>
      </resource>
   </entry>
   <entry>
      <fullUrl value="https://www.example.org/Observation/observationAssay3"/>
      <resource>
         <Observation>
            <id value="observationAssay3"/>
            <instantiatesReference>
               <reference value="ObservationDefinition/Assay"/>
            </instantiatesReference>
            <status value="final"/>
            <code>
               <coding>
                  <system value="http://dummy.loinc.org"/>
                  <code value="XXX"/>
                  <display value="Assay"/>
               </coding>
               <text value="Assay"/>
            </code>
            <subject>
               <reference value="Substance/actual-batch-substance-3"/>
            </subject>
            <valueQuantity>
               <value value="96"/>
               <unit value="%"/>
               <system value="http://dummy.unitsofmeasure.org"/>
               <code value="%"/>
            </valueQuantity>
            <note>
               <text
                  value="CAT1, CAT2 and CAT3 met the clinical specification in place at time of testing; clinical specification release limit for Assay was 93% w/w; clinical specification release limit for Enantiomeric Purity was NLT 91.0%">
                  <extension url="http://hl7.org/fhir/uv/dx-pq/StructureDefinition/Extension-table-footnote-dxpq">
                  <!--<extension url="http://nprogram.co.uk/fhir/extension/viewer/tableFootnote">-->
                     <valueString value="[1]"/>
                  </extension>
               </text>
            </note>
         </Observation>
      </resource>
   </entry>
   <entry>
      <fullUrl value="https://www.example.org/Observation/observationDegradation-imp1"/>
      <resource>
         <Observation>
            <id value="observationDegradation-imp1"/>
            <instantiatesReference>
               <reference value="ObservationDefinition/Impurities"/>
            </instantiatesReference>
            <status value="final"/>
            <code>
               <coding>
                  <system value="http://dummy.loinc.org"/>
                  <code value="DGP"/>
                  <display value="Impurities"/>
               </coding>
               <text value="Impurities"/>
            </code>
            <subject>
               <reference value="Substance/actual-batch-substance"/>
            </subject>
            <valueQuantity>
               <value value="0.5"/>
               <unit value="% w/w"/>
               <system value="http://dummy.unitsofmeasure.org"/>
               <code value="% {w/w}"/>
            </valueQuantity>
            <component>
               <code>
                  <coding>
                     <system value="http://dummy.loinc.org"/>
                     <code value="IMP"/>
                     <display value="Impurity"/>
                  </coding>
               </code>
               <valueCodeableConcept>
                  <text value="Impurity 1"/>
               </valueCodeableConcept>
            </component>
         </Observation>
      </resource>
   </entry>
   <entry>
      <fullUrl value="https://www.example.org/Observation/observationDegradation-imp1-2"/>
      <resource>
         <Observation>
            <id value="observationDegradation-imp1-2"/>
            <instantiatesReference>
               <reference value="ObservationDefinition/Impurities"/>
            </instantiatesReference>
            <status value="final"/>
            <code>
               <coding>
                  <system value="http://dummy.loinc.org"/>
                  <code value="Impurities"/>
                  <display value="Impurities"/>
               </coding>
               <text value="Impurities"/>
            </code>
            <subject>
               <reference value="Substance/actual-batch-substance-2"/>
            </subject>
            <valueQuantity>
               <value value="0.4"/>
               <unit value="% w/w"/>
               <system value="http://dummy.unitsofmeasure.org"/>
               <code value="% {w/w}"/>
            </valueQuantity>
            <component>
               <code>
                  <coding>
                     <system value="http://dummy.loinc.org"/>
                     <code value="IMP"/>
                     <display value="Impurity"/>
                  </coding>
               </code>
               <valueCodeableConcept>
                  <text value="Impurity 1"/>
               </valueCodeableConcept>
            </component>
         </Observation>
      </resource>
   </entry>
   <entry>
      <fullUrl value="https://www.example.org/Observation/observationDegradation-imp1-3"/>
      <resource>
         <Observation>
            <id value="observationDegradation-imp1-3"/>
            <instantiatesReference>
               <reference value="ObservationDefinition/Impurities"/>
            </instantiatesReference>
            <status value="final"/>
            <code>
               <coding>
                  <system value="http://dummy.loinc.org"/>
                  <code value="DGP"/>
                  <display value="Impurities"/>
               </coding>
               <text value="Impurities"/>
            </code>
            <subject>
               <reference value="Substance/actual-batch-substance-3"/>
            </subject>
            <valueQuantity>
               <value value="0.2"/>
               <unit value="% w/w"/>
               <system value="http://dummy.unitsofmeasure.org"/>
               <code value="% {w/w}"/>
            </valueQuantity>
            <component>
               <code>
                  <coding>
                     <system value="http://dummy.loinc.org"/>
                     <code value="IMP"/>
                     <display value="Impurity"/>
                  </coding>
               </code>
               <valueCodeableConcept>
                  <text value="Impurity 1"/>
               </valueCodeableConcept>
            </component>
         </Observation>
      </resource>
   </entry>
   <entry>
      <fullUrl value="https://www.example.org/Observation/observationDegradation-imp2"/>
      <resource>
         <Observation>
            <id value="observationDegradation-imp2"/>
            <instantiatesReference>
               <reference value="ObservationDefinition/Impurities"/>
            </instantiatesReference>
            <status value="final"/>
            <code>
               <coding>
                  <system value="http://dummy.loinc.org"/>
                  <code value="DGP"/>
                  <display value="Impurities"/>
               </coding>
               <text value="Impurities"/>
            </code>
            <subject>
               <reference value="Substance/actual-batch-substance"/>
            </subject>
            <valueQuantity>
               <value value="0.5"/>
               <unit value="% w/w"/>
               <system value="http://dummy.unitsofmeasure.org"/>
               <code value="% {w/w}"/>
            </valueQuantity>
            <component>
               <code>
                  <coding>
                     <system value="http://dummy.loinc.org"/>
                     <code value="IMP"/>
                     <display value="Impurity"/>
                  </coding>
               </code>
               <valueCodeableConcept>
                  <text value="Impurity 2"/>
               </valueCodeableConcept>
            </component>
         </Observation>
      </resource>
   </entry>
   <entry>
      <fullUrl value="https://www.example.org/Observation/observationDegradation-imp2-2"/>
      <resource>
         <Observation>
            <id value="observationDegradation-imp2-2"/>
            <instantiatesReference>
               <reference value="ObservationDefinition/Impurities"/>
            </instantiatesReference>
            <status value="final"/>
            <code>
               <coding>
                  <system value="http://dummy.loinc.org"/>
                  <code value="DGP"/>
                  <display value="Impurities"/>
               </coding>
               <text value="Impurities"/>
            </code>
            <subject>
               <reference value="Substance/actual-batch-substance-2"/>
            </subject>
            <valueQuantity>
               <value value="0.4"/>
               <unit value="% w/w"/>
               <system value="http://dummy.unitsofmeasure.org"/>
               <code value="% {w/w}"/>
            </valueQuantity>
            <component>
               <code>
                  <coding>
                     <system value="http://dummy.loinc.org"/>
                     <code value="IMP"/>
                     <display value="Impurity"/>
                  </coding>
               </code>
               <valueCodeableConcept>
                  <text value="Impurity 2"/>
               </valueCodeableConcept>
            </component>
         </Observation>
      </resource>
   </entry>
   <entry>
      <fullUrl value="https://www.example.org/Observation/observationDegradation-imp2-3"/>
      <resource>
         <Observation>
            <id value="observationDegradation-imp2-3"/>
            <instantiatesReference>
               <reference value="ObservationDefinition/Impurities"/>
            </instantiatesReference>
            <status value="final"/>
            <code>
               <coding>
                  <system value="http://dummy.loinc.org"/>
                  <code value="DGP"/>
                  <display value="Impurities"/>
               </coding>
               <text value="Impurities"/>
            </code>
            <subject>
               <reference value="Substance/actual-batch-substance-3"/>
            </subject>
            <valueQuantity>
               <value value="0.2"/>
               <unit value="% w/w"/>
               <system value="http://dummy.unitsofmeasure.org"/>
               <code value="% {w/w}"/>
            </valueQuantity>
            <component>
               <code>
                  <coding>
                     <system value="http://dummy.loinc.org"/>
                     <code value="IMP"/>
                     <display value="Impurity"/>
                  </coding>
               </code>
               <valueCodeableConcept>
                  <text value="Impurity 2"/>
               </valueCodeableConcept>
            </component>
         </Observation>
      </resource>
   </entry>
   <entry>
      <fullUrl value="https://www.example.org/Observation/observationDegradation-imp3"/>
      <resource>
         <Observation>
            <id value="observationDegradation-imp3"/>
            <instantiatesReference>
               <reference value="ObservationDefinition/Impurities"/>
            </instantiatesReference>
            <status value="final"/>
            <code>
               <coding>
                  <system value="http://dummy.loinc.org"/>
                  <code value="DGP"/>
                  <display value="Impurities"/>
               </coding>
               <text value="Impurities"/>
            </code>
            <subject>
               <reference value="Substance/actual-batch-substance"/>
            </subject>
            <valueQuantity>
               <value value="0.1"/>
               <unit value="% w/w"/>
               <system value="http://dummy.unitsofmeasure.org"/>
               <code value="% {w/w}"/>
            </valueQuantity>
            <component>
               <code>
                  <coding>
                     <system value="http://dummy.loinc.org"/>
                     <code value="IMP"/>
                     <display value="Impurity"/>
                  </coding>
               </code>
               <valueCodeableConcept>
                  <text value="Impurity 3"/>
               </valueCodeableConcept>
            </component>
         </Observation>
      </resource>
   </entry>
   <entry>
      <fullUrl value="https://www.example.org/Observation/observationDegradation-imp3-2"/>
      <resource>
         <Observation>
            <id value="observationDegradation-imp3-2"/>
            <instantiatesReference>
               <reference value="ObservationDefinition/Impurities"/>
            </instantiatesReference>
            <status value="final"/>
            <code>
               <coding>
                  <system value="http://dummy.loinc.org"/>
                  <code value="DGP"/>
                  <display value="Impurities"/>
               </coding>
               <text value="Impurities"/>
            </code>
            <subject>
               <reference value="Substance/actual-batch-substance-2"/>
            </subject>
            <valueQuantity>
               <value value="0.1"/>
               <unit value="% w/w"/>
               <system value="http://dummy.unitsofmeasure.org"/>
               <code value="% {w/w}"/>
            </valueQuantity>
            <component>
               <code>
                  <coding>
                     <system value="http://dummy.loinc.org"/>
                     <code value="IMP"/>
                     <display value="Impurity"/>
                  </coding>
               </code>
               <valueCodeableConcept>
                  <text value="Impurity 3"/>
               </valueCodeableConcept>
            </component>
         </Observation>
      </resource>
   </entry>
   <entry>
      <fullUrl value="https://www.example.org/Observation/observationDegradation-imp3-3"/>
      <resource>
         <Observation>
            <id value="observationDegradation-imp3-3"/>
            <instantiatesReference>
               <reference value="ObservationDefinition/Impurities"/>
            </instantiatesReference>
            <status value="final"/>
            <code>
               <coding>
                  <system value="http://dummy.loinc.org"/>
                  <code value="DGP"/>
                  <display value="Impurities"/>
               </coding>
               <text value="Impurities"/>
            </code>
            <subject>
               <reference value="Substance/actual-batch-substance-3"/>
            </subject>
            <valueQuantity>
               <value value="0.1"/>
               <unit value="% w/w"/>
               <system value="http://dummy.unitsofmeasure.org"/>
               <code value="% {w/w}"/>
            </valueQuantity>
            <component>
               <code>
                  <coding>
                     <system value="http://dummy.loinc.org"/>
                     <code value="IMP"/>
                     <display value="Impurity"/>
                  </coding>
               </code>
               <valueCodeableConcept>
                  <text value="Impurity 3"/>
               </valueCodeableConcept>
            </component>
         </Observation>
      </resource>
   </entry>
   <entry>
      <fullUrl value="https://www.example.org/Observation/observationDegradation-imp-unspecified"/>
      <resource>
         <Observation>
            <id value="observationDegradation-imp-unspecified"/>
            <instantiatesReference>
               <reference value="ObservationDefinition/Impurities"/>
            </instantiatesReference>
            <status value="final"/>
            <code>
               <coding>
                  <system value="http://dummy.loinc.org"/>
                  <code value="DGP"/>
                  <display value="Impurities"/>
               </coding>
               <text value="Impurities"/>
            </code>
            <subject>
               <reference value="Substance/actual-batch-substance"/>
            </subject>
            <valueQuantity>
               <value value="0.1"/>
               <unit value="% w/w"/>
               <system value="http://dummy.unitsofmeasure.org"/>
               <code value="% {w/w}"/>
            </valueQuantity>
            <component>
               <code>
                  <coding>
                     <system value="http://dummy.loinc.org"/>
                     <code value="IMP"/>
                     <display value="Impurity"/>
                  </coding>
               </code>
               <valueCodeableConcept>
                  <text value="Any individual unspecified impurity"/>
               </valueCodeableConcept>
            </component>
         </Observation>
      </resource>
   </entry>
   <entry>
      <fullUrl value="https://www.example.org/Observation/observationDegradation-imp-unspecified-2"/>
      <resource>
         <Observation>
            <id value="observationDegradation-imp-unspecified-2"/>
            <instantiatesReference>
               <reference value="ObservationDefinition/Impurities"/>
            </instantiatesReference>
            <status value="final"/>
            <code>
               <coding>
                  <system value="http://dummy.loinc.org"/>
                  <code value="DGP"/>
                  <display value="Impurities"/>
               </coding>
               <text value="Impurities"/>
            </code>
            <subject>
               <reference value="Substance/actual-batch-substance-2"/>
            </subject>
            <valueQuantity>
               <value value="0.1"/>
               <unit value="% w/w"/>
               <system value="http://dummy.unitsofmeasure.org"/>
               <code value="% {w/w}"/>
            </valueQuantity>
            <component>
               <code>
                  <coding>
                     <system value="http://dummy.loinc.org"/>
                     <code value="IMP"/>
                     <display value="Impurity"/>
                  </coding>
               </code>
               <valueCodeableConcept>
                  <text value="Any individual unspecified impurity"/>
               </valueCodeableConcept>
            </component>
         </Observation>
      </resource>
   </entry>
   <entry>
      <fullUrl value="https://www.example.org/Observation/observationDegradation-imp-unspecified-3"/>
      <resource>
         <Observation>
            <id value="observationDegradation-imp-unspecified-3"/>
            <instantiatesReference>
               <reference value="ObservationDefinition/Impurities"/>
            </instantiatesReference>
            <status value="final"/>
            <code>
               <coding>
                  <system value="http://dummy.loinc.org"/>
                  <code value="DGP"/>
                  <display value="Impurities"/>
               </coding>
               <text value="Impurities"/>
            </code>
            <subject>
               <reference value="Substance/actual-batch-substance-3"/>
            </subject>
            <valueQuantity>
               <value value="0.1"/>
               <unit value="% w/w"/>
               <system value="http://dummy.unitsofmeasure.org"/>
               <code value="% {w/w}"/>
            </valueQuantity>
            <component>
               <code>
                  <coding>
                     <system value="http://dummy.loinc.org"/>
                     <code value="IMP"/>
                     <display value="Impurity"/>
                  </coding>
               </code>
               <valueCodeableConcept>
                  <!-- could have the code of an imw substance, or could have an extension to point to it as a resource -->
                  <text value="Any individual unspecified impurity"/>
               </valueCodeableConcept>
            </component>
         </Observation>
      </resource>
   </entry>
   <entry>
      <fullUrl value="https://www.example.org/Observation/observationDegradation-imp-total"/>
      <resource>
         <Observation>
            <id value="observationDegradation-imp-total"/>
            <instantiatesReference>
               <reference value="ObservationDefinition/Impurities"/>
            </instantiatesReference>
            <status value="final"/>
            <code>
               <coding>
                  <system value="http://dummy.loinc.org"/>
                  <code value="DGP"/>
                  <display value="Impurities"/>
               </coding>
               <text value="Impurities"/>
            </code>
            <subject>
               <reference value="Substance/actual-batch-substance"/>
            </subject>
            <valueQuantity>
               <value value="0.02"/>
               <unit value="% w/w"/>
               <system value="http://dummy.unitsofmeasure.org"/>
               <code value="% {w/w}"/>
            </valueQuantity>
            <component>
               <code>
                  <coding>
                     <system value="http://dummy.loinc.org"/>
                     <code value="IMP"/>
                     <display value="Ima"/>
                  </coding>
               </code>
               <valueCodeableConcept>
                  <text value="Total impurities"/>
               </valueCodeableConcept>
            </component>
         </Observation>
      </resource>
   </entry>
   <entry>
      <fullUrl value="https://www.example.org/Observation/observationDegradation-imp-total-2"/>
      <resource>
         <Observation>
            <id value="observationDegradation-imp-total-2"/>
            <instantiatesReference>
               <reference value="ObservationDefinition/Impurities"/>
            </instantiatesReference>
            <status value="final"/>
            <code>
               <coding>
                  <system value="http://dummy.loinc.org"/>
                  <code value="DGP"/>
                  <display value="Impurities"/>
               </coding>
               <text value="Impurities"/>
            </code>
            <subject>
               <reference value="Substance/actual-batch-substance-2"/>
            </subject>
            <valueQuantity>
               <value value="0.02"/>
               <unit value="% w/w"/>
               <system value="http://dummy.unitsofmeasure.org"/>
               <code value="% {w/w}"/>
            </valueQuantity>
            <component>
               <code>
                  <coding>
                     <system value="http://dummy.loinc.org"/>
                     <code value="IMP"/>
                     <display value="Impurity"/>
                  </coding>
               </code>
               <valueCodeableConcept>
                  <text value="Total impurities"/>
               </valueCodeableConcept>
            </component>
         </Observation>
      </resource>
   </entry>
   <entry>
      <fullUrl value="https://www.example.org/Observation/observationDegradation-imp-total-3"/>
      <resource>
         <Observation>
            <id value="observationDegradation-imp-total-3"/>
            <instantiatesReference>
               <reference value="ObservationDefinition/Impurities"/>
            </instantiatesReference>
            <status value="final"/>
            <code>
               <coding>
                  <system value="http://dummy.loinc.org"/>
                  <code value="DGP"/>
                  <display value="Impurities"/>
               </coding>
               <text value="Impurities"/>
            </code>
            <subject>
               <reference value="Substance/actual-batch-substance-3"/>
            </subject>
            <valueQuantity>
               <value value="0.02"/>
               <unit value="% w/w"/>
               <system value="http://dummy.unitsofmeasure.org"/>
               <code value="% {w/w}"/>
            </valueQuantity>
            <component>
               <code>
                  <coding>
                     <system value="http://dummy.loinc.org"/>
                     <code value="IMP"/>
                     <display value="Impurity"/>
                  </coding>
               </code>
               <valueCodeableConcept>
                  <!-- could have the code of an imr substance, or could have an extension to point to it as a resource -->
                  <text value="Total impurities"/>
               </valueCodeableConcept>
            </component>
         </Observation>
      </resource>
   </entry>
   <entry>
      <fullUrl value="https://www.example.org/Observation/observationMutagenic"/>
      <resource>
         <Observation>
            <id value="observationMutagenic"/>
            <instantiatesReference>
               <reference value="ObservationDefinition/Mutagenic"/>
            </instantiatesReference>
            <status value="final"/>
            <code>
               <coding>
                  <system value="http://dummy.loinc.org"/>
                  <code value="XXX"/>
                  <display value="Mutagenic"/>
               </coding>
            </code>
            <subject>
               <reference value="Substance/actual-batch-substance"/>
            </subject>
            <valueQuantity>
               <value value="20"/>
               <unit value="ppm"/>
               <system value="http://dummy.unitsofmeasure.org"/>
               <code value="ppm"/>
            </valueQuantity>
            <component>
               <code>
                  <coding>
                     <system value="http://dummy.loinc.org"/>
                     <code value="IMP"/>
                     <display value="Impurity"/>
                  </coding>
               </code>
               <valueCodeableConcept>
                  <text value="Impurity - Mutagenic"/>
               </valueCodeableConcept>
            </component>
         </Observation>
      </resource>
   </entry>
   <entry>
      <fullUrl value="https://www.example.org/Observation/observationMutagenic2"/>
      <resource>
         <Observation>
            <id value="observationMutagenic2"/>
            <instantiatesReference>
               <reference value="ObservationDefinition/Mutagenic"/>
            </instantiatesReference>
            <status value="final"/>
            <code>
               <coding>
                  <system value="http://dummy.loinc.org"/>
                  <code value="XXX"/>
                  <display value="Mutagenic"/>
               </coding>
               <text value="Mutagenic"/>
            </code>
            <subject>
               <reference value="Substance/actual-batch-substance-2"/>
            </subject>
            <valueQuantity>
               <value value="22"/>
               <unit value="%"/>
               <system value="http://dummy.unitsofmeasure.org"/>
               <code value="%"/>
            </valueQuantity>
         </Observation>
      </resource>
   </entry>
   <entry>
      <fullUrl value="https://www.example.org/Observation/observationMutagenic3"/>
      <resource>
         <Observation>
            <id value="observationMutagenic3"/>
            <instantiatesReference>
               <reference value="ObservationDefinition/Mutagenic"/>
            </instantiatesReference>
            <status value="final"/>
            <code>
               <coding>
                  <system value="http://dummy.loinc.org"/>
                  <code value="XXX"/>
                  <display value="Mutagenic"/>
               </coding>
               <text value="Mutagenic"/>
            </code>
            <subject>
               <reference value="Substance/actual-batch-substance-3"/>
            </subject>
            <valueQuantity>
               <value value="18"/>
               <unit value="%"/>
               <system value="http://dummy.unitsofmeasure.org"/>
               <code value="%"/>
            </valueQuantity>
         </Observation>
      </resource>
   </entry>
   <entry>
      <fullUrl value="https://www.example.org/Observation/observationEnantiomericPurity"/>
      <resource>
         <Observation>
            <id value="observationEnantiomericPurity"/>
            <instantiatesReference>
               <reference value="ObservationDefinition/Enantiomeric"/>
            </instantiatesReference>
            <status value="final"/>
            <code>
               <coding>
                  <system value="http://dummy.loinc.org"/>
                  <code value="ZZZ"/>
                  <display value="Enantiomeric purity"/>
               </coding>
               <text value="Enantiomeric purity"/>
            </code>
            <subject>
               <reference value="Substance/actual-batch-substance"/>
            </subject>
            <valueQuantity>
               <value value="91.5"/>
               <unit value="%"/>
               <system value="http://dummy.unitsofmeasure.org"/>
               <code value="%"/>
            </valueQuantity>
            <note>
               <text
                  value="CAT1, CAT2 and CAT3 met the clinical specification in place at time of testing; clinical specification release limit for Assay was 93% w/w; clinical specification release limit for Enantiomeric Purity was NLT 91.0%">
                  <extension url="http://hl7.org/fhir/uv/dx-pq/StructureDefinition/Extension-table-footnote-dxpq">
                  <!--<extension url="http://nprogram.co.uk/fhir/extension/viewer/tableFootnote">-->
                     <valueString value="[1]"/>
                  </extension>
               </text>
            </note>
         </Observation>
      </resource>
   </entry>
   <entry>
      <fullUrl value="https://www.example.org/Observation/observationEnantiomericPurity2"/>
      <resource>
         <Observation>
            <id value="observationEnantiomericPurity2"/>
            <instantiatesReference>
               <reference value="ObservationDefinition/Enantiomeric"/>
            </instantiatesReference>
            <status value="final"/>
            <code>
               <coding>
                  <system value="http://dummy.loinc.org"/>
                  <code value="ZZZ"/>
                  <display value="Enantiomeric purity"/>
               </coding>
               <text value="Enantiomeric purity"/>
            </code>
            <subject>
               <reference value="Substance/actual-batch-substance-2"/>
            </subject>
            <valueQuantity>
               <value value="91.5"/>
               <unit value="%"/>
               <system value="http://dummy.unitsofmeasure.org"/>
               <code value="%"/>
            </valueQuantity>
            <note>
               <text
                  value="CAT1, CAT2 and CAT3 met the clinical specification in place at time of testing; clinical specification release limit for Assay was 93% w/w; clinical specification release limit for Enantiomeric Purity was NLT 91.0%">
                  <extension url="http://hl7.org/fhir/uv/dx-pq/StructureDefinition/Extension-table-footnote-dxpq">
                  <!--<extension url="http://nprogram.co.uk/fhir/extension/viewer/tableFootnote">-->
                     <valueString value="[1]"/>
                  </extension>
               </text>
            </note>
         </Observation>
      </resource>
   </entry>
   <entry>
      <fullUrl value="https://www.example.org/Observation/observationEnantiomericPurity3"/>
      <resource>
         <Observation>
            <id value="observationEnantiomericPurity3"/>
            <instantiatesReference>
               <reference value="ObservationDefinition/Enantiomeric"/>
            </instantiatesReference>
            <status value="final"/>
            <code>
               <coding>
                  <system value="http://dummy.loinc.org"/>
                  <code value="ZZZ"/>
                  <display value="Enantiomeric purity"/>
               </coding>
               <text value="Enantiomeric purity"/>
            </code>
            <subject>
               <reference value="Substance/actual-batch-substance-3"/>
            </subject>
            <valueQuantity>
               <value value="91.5"/>
               <unit value="%"/>
               <system value="http://dummy.unitsofmeasure.org"/>
               <code value="%"/>
            </valueQuantity>
            <note>
               <text
                  value="Batch 3 did not originally meet specification criteria, and was subject to reprocessing and repurification. The updated result is presented in this table. The lot was not distributed for human use.">
                  <extension url="http://hl7.org/fhir/uv/dx-pq/StructureDefinition/Extension-table-footnote-dxpq">
                  <!--<extension url="http://nprogram.co.uk/fhir/extension/viewer/tableFootnote">-->
                     <valueString value="[3]"/>
                  </extension>
               </text>
            </note>
         </Observation>
      </resource>
   </entry>
   <entry>
      <fullUrl value="https://www.example.org/Observation/observationSolvents-sol1"/>
      <resource>
         <Observation>
            <id value="observationSolvents-sol1"/>
            <instantiatesReference>
               <reference value="ObservationDefinition/Solvents"/>
            </instantiatesReference>
            <status value="final"/>
            <code>
               <coding>
                  <system value="http://dummy.loinc.org"/>
                  <code value="SOL"/>
                  <display value="Residual solvents"/>
               </coding>
            </code>
            <subject>
               <reference value="Substance/actual-batch-substance"/>
            </subject>
            <valueQuantity>
               <value value="0.1"/>
               <unit value="% w/w"/>
               <system value="http://dummy.unitsofmeasure.org"/>
               <code value="% {w/w}"/>
            </valueQuantity>
            <component>
               <code>
                  <coding>
                     <system value="http://dummy.loinc.org"/>
                     <code value="SOL"/>
                     <display value="Solvent"/>
                  </coding>
               </code>
               <valueCodeableConcept>
                  <text value="Solvent 1"/>
               </valueCodeableConcept>
            </component>
         </Observation>
      </resource>
   </entry>
   <entry>
      <fullUrl value="https://www.example.org/Observation/observationSolvents-sol1-2"/>
      <resource>
         <Observation>
            <id value="observationSolvents-sol1-2"/>
            <instantiatesReference>
               <reference value="ObservationDefinition/Solvents"/>
            </instantiatesReference>
            <status value="final"/>
            <code>
               <coding>
                  <system value="http://dummy.loinc.org"/>
                  <code value="SOL"/>
                  <display value="Residual solvents"/>
               </coding>
            </code>
            <subject>
               <reference value="Substance/actual-batch-substance-2"/>
            </subject>
            <valueQuantity>
               <value value="0.1"/>
               <unit value="% w/w"/>
               <system value="http://dummy.unitsofmeasure.org"/>
               <code value="% {w/w}"/>
            </valueQuantity>
            <component>
               <code>
                  <coding>
                     <system value="http://dummy.loinc.org"/>
                     <code value="SOL"/>
                     <display value="Solvent"/>
                  </coding>
               </code>
               <valueCodeableConcept>
                  <text value="Solvent 1"/>
               </valueCodeableConcept>
            </component>
         </Observation>
      </resource>
   </entry>
   <entry>
      <fullUrl value="https://www.example.org/Observation/observationSolvents-sol1-3"/>
      <resource>
         <Observation>
            <id value="observationSolvents-sol1-3"/>
            <instantiatesReference>
               <reference value="ObservationDefinition/Solvents"/>
            </instantiatesReference>
            <status value="final"/>
            <code>
               <coding>
                  <system value="http://dummy.loinc.org"/>
                  <code value="SOL"/>
                  <display value="Residual solvents"/>
               </coding>
            </code>
            <subject>
               <reference value="Substance/actual-batch-substance-3"/>
            </subject>
            <valueQuantity>
               <value value="0.1"/>
               <unit value="% w/w"/>
               <system value="http://dummy.unitsofmeasure.org"/>
               <code value="% {w/w}"/>
            </valueQuantity>
            <component>
               <code>
                  <coding>
                     <system value="http://dummy.loinc.org"/>
                     <code value="SOL"/>
                     <display value="Solvent"/>
                  </coding>
               </code>
               <valueCodeableConcept>
                  <text value="Solvent 1"/>
               </valueCodeableConcept>
            </component>
         </Observation>
      </resource>
   </entry>
   <entry>
      <fullUrl value="https://www.example.org/Observation/observationSolvents-sol2"/>
      <resource>
         <Observation>
            <id value="observationSolvents-sol2"/>
            <instantiatesReference>
               <reference value="ObservationDefinition/Solvents"/>
            </instantiatesReference>
            <status value="final"/>
            <code>
               <coding>
                  <system value="http://dummy.loinc.org"/>
                  <code value="SOL"/>
                  <display value="Residual solvents"/>
               </coding>
            </code>
            <subject>
               <reference value="Substance/actual-batch-substance"/>
            </subject>
            <valueQuantity>
               <value value="1.4"/>
               <unit value="% w/w"/>
               <system value="http://dummy.unitsofmeasure.org"/>
               <code value="% {w/w}"/>
            </valueQuantity>
            <component>
               <code>
                  <coding>
                     <system value="http://dummy.loinc.org"/>
                     <code value="SOL"/>
                     <display value="Solvent"/>
                  </coding>
               </code>
               <valueCodeableConcept>
                  <text value="Solvent 2"/>
               </valueCodeableConcept>
            </component>
         </Observation>
      </resource>
   </entry>
   <entry>
      <fullUrl value="https://www.example.org/Observation/observationSolvents-sol2-2"/>
      <resource>
         <Observation>
            <id value="observationSolvents-sol2-2"/>
            <instantiatesReference>
               <reference value="ObservationDefinition/Solvents"/>
            </instantiatesReference>
            <status value="final"/>
            <code>
               <coding>
                  <system value="http://dummy.loinc.org"/>
                  <code value="SOL"/>
                  <display value="Residual solvents"/>
               </coding>
            </code>
            <subject>
               <reference value="Substance/actual-batch-substance-2"/>
            </subject>
            <valueQuantity>
               <value value="1.5"/>
               <unit value="% w/w"/>
               <system value="http://dummy.unitsofmeasure.org"/>
               <code value="% {w/w}"/>
            </valueQuantity>
            <component>
               <code>
                  <coding>
                     <system value="http://dummy.loinc.org"/>
                     <code value="SOL"/>
                     <display value="Solvent"/>
                  </coding>
               </code>
               <valueCodeableConcept>
                  <text value="Solvent 2"/>
               </valueCodeableConcept>
            </component>
         </Observation>
      </resource>
   </entry>
   <entry>
      <fullUrl value="https://www.example.org/Observation/observationSolvents-sol2-3"/>
      <resource>
         <Observation>
            <id value="observationSolvents-sol2-3"/>
            <instantiatesReference>
               <reference value="ObservationDefinition/Solvents"/>
            </instantiatesReference>
            <status value="final"/>
            <code>
               <coding>
                  <system value="http://dummy.loinc.org"/>
                  <code value="SOL"/>
                  <display value="Residual solvents"/>
               </coding>
            </code>
            <subject>
               <reference value="Substance/actual-batch-substance-3"/>
            </subject>
            <valueQuantity>
               <value value="1.2"/>
               <unit value="% w/w"/>
               <system value="http://dummy.unitsofmeasure.org"/>
               <code value="% {w/w}"/>
            </valueQuantity>
            <component>
               <code>
                  <coding>
                     <system value="http://dummy.loinc.org"/>
                     <code value="SOL"/>
                     <display value="Solvent"/>
                  </coding>
               </code>
               <valueCodeableConcept>
                  <text value="Solvent 2"/>
               </valueCodeableConcept>
            </component>
         </Observation>
      </resource>
   </entry>
   <entry>
      <fullUrl value="https://www.example.org/Observation/observationWater"/>
      <resource>
         <Observation>
            <id value="observationWater"/>
            <instantiatesReference>
               <reference value="ObservationDefinition/Water"/>
            </instantiatesReference>
            <status value="final"/>
            <code>
               <coding>
                  <system value="http://dummy.loinc.org"/>
                  <code value="WWW"/>
                  <display value="Water Content"/>
               </coding>
               <text value="Water Content"/>
            </code>
            <subject>
               <reference value="Substance/actual-batch-substance"/>
            </subject>
            <valueQuantity>
               <value value="0.8"/>
               <unit value="% w/w"/>
               <system value="http://dummy.unitsofmeasure.org"/>
               <code value="% {w/w}"/>
            </valueQuantity>
         </Observation>
      </resource>
   </entry>
   <entry>
      <fullUrl value="https://www.example.org/Observation/observationWater2"/>
      <resource>
         <Observation>
            <id value="observationWater2"/>
            <instantiatesReference>
               <reference value="ObservationDefinition/Water"/>
            </instantiatesReference>
            <status value="final"/>
            <code>
               <coding>
                  <system value="http://dummy.loinc.org"/>
                  <code value="WWW"/>
                  <display value="Water Content"/>
               </coding>
               <text value="Water Content"/>
            </code>
            <subject>
               <reference value="Substance/actual-batch-substance-2"/>
            </subject>
            <valueQuantity>
               <value value="0.8"/>
               <unit value="% w/w"/>
               <system value="http://dummy.unitsofmeasure.org"/>
               <code value="% {w/w}"/>
            </valueQuantity>
         </Observation>
      </resource>
   </entry>
   <entry>
      <fullUrl value="https://www.example.org/Observation/observationWater3"/>
      <resource>
         <Observation>
            <id value="observationWater3"/>
            <instantiatesReference>
               <reference value="ObservationDefinition/Water"/>
            </instantiatesReference>
            <status value="final"/>
            <code>
               <coding>
                  <system value="http://dummy.loinc.org"/>
                  <code value="XXX"/>
                  <display value="Water Content"/>
               </coding>
               <text value="Water Content"/>
            </code>
            <subject>
               <reference value="Substance/actual-batch-substance-3"/>
            </subject>
            <valueQuantity>
               <value value="0.8"/>
               <unit value="% w/w"/>
               <system value="http://dummy.unitsofmeasure.org"/>
               <code value="% {w/w}"/>
            </valueQuantity>
         </Observation>
      </resource>
   </entry>
   <entry>
      <fullUrl value="https://www.example.org/Observation/observationParticleSize-size1"/>
      <resource>
         <Observation>
            <id value="observationParticleSize-size1"/>
            <instantiatesReference>
               <reference value="ObservationDefinition/Particles"/>
            </instantiatesReference>
            <status value="final"/>
            <code>
               <coding>
                  <system value="http://dummy.loinc.org"/>
                  <code value="PART"/>
                  <display value="Particle size distribution"/>
               </coding>
            </code>
            <subject>
               <reference value="Substance/actual-batch-substance"/>
            </subject>
            <valueQuantity>
               <value value="0.5"/>
               <unit value="% w/w"/>
               <system value="http://dummy.unitsofmeasure.org"/>
               <code value="% {w/w}"/>
            </valueQuantity>
            <component>
               <code>
                  <coding>
                     <system value="http://dummy.loinc.org"/>
                     <code value="IMP"/>
                     <display value="Impurity"/>
                  </coding>
               </code>
               <valueCodeableConcept>
                  <text value="D(v,0.9)"/>
               </valueCodeableConcept>
            </component>
         </Observation>
      </resource>
   </entry>
   <entry>
      <fullUrl value="https://www.example.org/Observation/observationParticleSize-size1-2"/>
      <resource>
         <Observation>
            <id value="observationParticleSize-size1-2"/>
            <instantiatesReference>
               <reference value="ObservationDefinition/Particles"/>
            </instantiatesReference>
            <status value="final"/>
            <code>
               <coding>
                  <system value="http://dummy.loinc.org"/>
                  <code value="PART"/>
                  <display value="Particle size distribution"/>
               </coding>
            </code>
            <subject>
               <reference value="Substance/actual-batch-substance-2"/>
            </subject>
            <valueQuantity>
               <value value="0.4"/>
               <unit value="% w/w"/>
               <system value="http://dummy.unitsofmeasure.org"/>
               <code value="% {w/w}"/>
            </valueQuantity>
            <component>
               <code>
                  <coding>
                     <system value="http://dummy.loinc.org"/>
                     <code value="IMP"/>
                     <display value="Impurity"/>
                  </coding>
               </code>
               <valueCodeableConcept>
                  <text value="D(v,0.9)"/>
               </valueCodeableConcept>
            </component>
         </Observation>
      </resource>
   </entry>
   <entry>
      <fullUrl value="https://www.example.org/Observation/observationParticleSize-size1-3"/>
      <resource>
         <Observation>
            <id value="observationParticleSize-size1-3"/>
            <instantiatesReference>
               <reference value="ObservationDefinition/Particles"/>
            </instantiatesReference>
            <status value="final"/>
            <code>
               <coding>
                  <system value="http://dummy.loinc.org"/>
                  <code value="PART"/>
                  <display value="Particle size distribution"/>
               </coding>
            </code>
            <subject>
               <reference value="Substance/actual-batch-substance-3"/>
            </subject>
            <valueQuantity>
               <value value="0.2"/>
               <unit value="% w/w"/>
               <system value="http://dummy.unitsofmeasure.org"/>
               <code value="% {w/w}"/>
            </valueQuantity>
            <component>
               <code>
                  <coding>
                     <system value="http://dummy.loinc.org"/>
                     <code value="SIZE"/>
                     <display value="Particle Size"/>
                  </coding>
               </code>
               <valueCodeableConcept>
                  <text value="D(v,0.9)"/>
               </valueCodeableConcept>
            </component>
         </Observation>
      </resource>
   </entry>
   <entry>
      <fullUrl value="https://www.example.org/Observation/observationParticleSize-size2"/>
      <resource>
         <Observation>
            <id value="observationParticleSize-size2"/>
            <instantiatesReference>
               <reference value="ObservationDefinition/Particles"/>
            </instantiatesReference>
            <status value="final"/>
            <code>
               <coding>
                  <system value="http://dummy.loinc.org"/>
                  <code value="PART"/>
                  <display value="Particle size distribution"/>
               </coding>
            </code>
            <subject>
               <reference value="Substance/actual-batch-substance"/>
            </subject>
            <valueQuantity>
               <value value="0.5"/>
               <unit value="% w/w"/>
               <system value="http://dummy.unitsofmeasure.org"/>
               <code value="% {w/w}"/>
            </valueQuantity>
            <component>
               <code>
                  <coding>
                     <system value="http://dummy.loinc.org"/>
                     <code value="SIZE"/>
                     <display value="Particle Size"/>
                  </coding>
               </code>
               <valueCodeableConcept>
                  <text value="D(v,0.5)"/>
               </valueCodeableConcept>
            </component>
         </Observation>
      </resource>
   </entry>
   <entry>
      <fullUrl value="https://www.example.org/Observation/observationParticleSize-size2-2"/>
      <resource>
         <Observation>
            <id value="observationParticleSize-size2-2"/>
            <instantiatesReference>
               <reference value="ObservationDefinition/Particles"/>
            </instantiatesReference>
            <status value="final"/>
            <code>
               <coding>
                  <system value="http://dummy.loinc.org"/>
                  <code value="PART"/>
                  <display value="Particle size distribution"/>
               </coding>
            </code>
            <subject>
               <reference value="Substance/actual-batch-substance-2"/>
            </subject>
            <valueQuantity>
               <value value="0.4"/>
               <unit value="% w/w"/>
               <system value="http://dummy.unitsofmeasure.org"/>
               <code value="% {w/w}"/>
            </valueQuantity>
            <component>
               <code>
                  <coding>
                     <system value="http://dummy.loinc.org"/>
                     <code value="SIZE"/>
                     <display value="Particle Size"/>
                  </coding>
               </code>
               <valueCodeableConcept>
                  <text value="D(v,0.5)"/>
               </valueCodeableConcept>
            </component>
         </Observation>
      </resource>
   </entry>
   <entry>
      <fullUrl value="https://www.example.org/Observation/observationParticleSize-size2-3"/>
      <resource>
         <Observation>
            <id value="observationParticleSize-size2-3"/>
            <instantiatesReference>
               <reference value="ObservationDefinition/Particles"/>
            </instantiatesReference>
            <status value="final"/>
            <code>
               <coding>
                  <system value="http://dummy.loinc.org"/>
                  <code value="PART"/>
                  <display value="Particle size distribution"/>
               </coding>
            </code>
            <subject>
               <reference value="Substance/actual-batch-substance-3"/>
            </subject>
            <valueQuantity>
               <value value="0.2"/>
               <unit value="% w/w"/>
               <system value="http://dummy.unitsofmeasure.org"/>
               <code value="% {w/w}"/>
            </valueQuantity>
            <component>
               <code>
                  <coding>
                     <system value="http://dummy.loinc.org"/>
                     <code value="SIZE"/>
                     <display value="Particle Size"/>
                  </coding>
               </code>
               <valueCodeableConcept>
                  <text value="D(v,0.5)"/>
               </valueCodeableConcept>
            </component>
         </Observation>
      </resource>
   </entry>
   <entry>
      <fullUrl value="https://www.example.org/Observation/observationParticleSize-size3"/>
      <resource>
         <Observation>
            <id value="observationParticleSize-size3"/>
            <instantiatesReference>
               <reference value="ObservationDefinition/Particles"/>
            </instantiatesReference>
            <status value="final"/>
            <code>
               <coding>
                  <system value="http://dummy.loinc.org"/>
                  <code value="PART"/>
                  <display value="Particle size distribution"/>
               </coding>
            </code>
            <subject>
               <reference value="Substance/actual-batch-substance"/>
            </subject>
            <valueQuantity>
               <value value="0.1"/>
               <unit value="% w/w"/>
               <system value="http://dummy.unitsofmeasure.org"/>
               <code value="% {w/w}"/>
            </valueQuantity>
            <component>
               <code>
                  <coding>
                     <system value="http://dummy.loinc.org"/>
                     <code value="SIZE"/>
                     <display value="Particle Size"/>
                  </coding>
               </code>
               <valueCodeableConcept>
                  <text value="D(v,0.1)"/>
               </valueCodeableConcept>
            </component>
         </Observation>
      </resource>
   </entry>
   <entry>
      <fullUrl value="https://www.example.org/Observation/observationParticleSize-size3-2"/>
      <resource>
         <Observation>
            <id value="observationParticleSize-size3-2"/>
            <instantiatesReference>
               <reference value="ObservationDefinition/Particles"/>
            </instantiatesReference>
            <status value="final"/>
            <code>
               <coding>
                  <system value="http://dummy.loinc.org"/>
                  <code value="PART"/>
                  <display value="Particle size distribution"/>
               </coding>
            </code>
            <subject>
               <reference value="Substance/actual-batch-substance-2"/>
            </subject>
            <valueQuantity>
               <value value="0.1"/>
               <unit value="% w/w"/>
               <system value="http://dummy.unitsofmeasure.org"/>
               <code value="% {w/w}"/>
            </valueQuantity>
            <component>
               <code>
                  <coding>
                     <system value="http://dummy.loinc.org"/>
                     <code value="SIZE"/>
                     <display value="Particle Size"/>
                  </coding>
               </code>
               <valueCodeableConcept>
                  <text value="D(v,0.1)"/>
               </valueCodeableConcept>
            </component>
         </Observation>
      </resource>
   </entry>
   <entry>
      <fullUrl value="https://www.example.org/Observation/observationParticleSize-size3-3"/>
      <resource>
         <Observation>
            <id value="observationParticleSize-size3-3"/>
            <instantiatesReference>
               <reference value="ObservationDefinition/Particles"/>
            </instantiatesReference>
            <status value="final"/>
            <code>
               <coding>
                  <system value="http://dummy.loinc.org"/>
                  <code value="PART"/>
                  <display value="Particle size distribution"/>
               </coding>
            </code>
            <subject>
               <reference value="Substance/actual-batch-substance-3"/>
            </subject>
            <valueQuantity>
               <value value="0.1"/>
               <unit value="% w/w"/>
               <system value="http://dummy.unitsofmeasure.org"/>
               <code value="% {w/w}"/>
            </valueQuantity>
            <component>
               <code>
                  <coding>
                     <system value="http://dummy.loinc.org"/>
                     <code value="SIZE"/>
                     <display value="Particle Size"/>
                  </coding>
               </code>
               <valueCodeableConcept>
                  <text value="D(v,0.1)"/>
               </valueCodeableConcept>
            </component>
         </Observation>
      </resource>
   </entry>
</Bundle>
