<?xml version="1.0" encoding="UTF-8"?>
<!-- Substance Characterization (Elucidation of Structure) -->
<Bundle xmlns="http://hl7.org/fhir">
   <id value="bundle-drug-substance-characterization-pq-ex1"/>
   <meta>
      <profile value="http://hl7.org/fhir/uv/pharm-quality/StructureDefinition/Bundle-drug-substance-characterization-pq"/>
   </meta>
   <type value="collection"/>
   <entry>
      <fullUrl value="urn:uuid:2038e4c7-22b8-4c56-2d28-6c077648763f"/>
      <resource>
         <PlanDefinition>
            	<!--characterizationProtocol-->
            <id value="2038e4c7-22b8-4c56-2d28-6c077648763f"/>
            <!--http://example-server.com/fhir/PlanDefinition/2038e4c7-22b8-4c56-2d28-6c077648763f-->
            <url value="http://example-server.com/fhir/PlanDefinition/2038e4c7-22b8-4c56-2d28-6c077648763f"/>
            <title value="Elucidation of Structure"/>
            <type>
               <coding>
                  <system value="http://terminology.hl7.org/CodeSystem/plan-definition-type"/>
                  <code value="workflow-definition"/>
                  <display value="Workflow Definition"/>
               </coding>
               <coding>
                  <system value="http://hl7.org/fhir/uv/pharm-quality/CodeSystem/cs-planType-local-pq"/>
                  <code value="elucidation-of-structure"/>
                  <display value="Elucidation of Structure"/>
               </coding>
            </type>
            <status value="active"/>
            <subjectReference>
                	<!--SubstanceDefinition/substancedefinition-component-substance-dxpq-ex1-->
               <reference value="SubstanceDefinition/57a9af63-315d-1585-a261-0e337b289390"/>
            </subjectReference>
            <description value="Pre-defined validation acceptance criteria were established based on manufacturing development data derived from process characterization studies..."/>
            <action>
               <prefix value="1"/>
               <title value="Elemental Analyis"/>
               <description value="Description of this step"/>
               <code>
                  <coding>
                     <system value="http://hl7.org/fhir/uv/pharm-quality/CodeSystem/cs-characterizationStep-local-pq"/>
                     <code value="elemental-analyis"/>
                     <display value="Elemental Analyis"/>
                  </coding>
               </code>
               <action>
                  <code>
                     <text value="Test"/>
                  </code>
                  <!--ObservationDefinition/ElementalAnalysisCarbon-->
                  <definitionCanonical value="ObservationDefinition/fd17b5d6-9fe1-91c2-2d06-47cb5b295e72"/>
               </action>
               <action>
                  <code>
                     <text value="Test"/>
                  </code>
                  <!--ObservationDefinition/ElementalAnalysisHydrogen-->
                  <definitionCanonical value="ObservationDefinition/fd17b5d6-9fe1-91c2-2d06-47cb5b295e73"/>
               </action>
               <action>
                  <code>
                     <text value="Test"/>
                  </code>
                  <!--ObservationDefinition/ElementalAnalysisNitrogen-->
                  <definitionCanonical value="ObservationDefinition/fd17b5d6-9fe1-91c2-2d06-47cb5b295e74"/>
               </action>
               <action>
                  <code>
                     <text value="Test"/>
                  </code>
                  <!--ObservationDefinition/ElementalAnalysisFlourine-->
                  <definitionCanonical value="ObservationDefinition/fd17b5d6-9fe1-91c2-2d06-47cb5b295e75"/>
               </action>
            </action>
            <action>
               <prefix value="2"/>
               <title value="List of Theoretical and Observed HCD MS/MS Ions"/>
               <description value="Description of this step"/>
               <code>
                  <coding>
                     <system value="http://hl7.org/fhir/uv/pharm-quality/CodeSystem/cs-characterizationStep-local-pq"/>
                     <code value="ion-analyis"/>
                     <display value="Ion Analyis"/>
                  </coding>
               </code>
               <action>
                  <code>
                     <text value="Test"/>
                  </code>
                  <!--ObservationDefinition/IonAnalysisCarbon-->
                  <definitionCanonical value="ObservationDefinition/fd17b5d6-9fe1-91c3-2d06-47cb5b295e72"/>
               </action>
               <action>
                  <code>
                     <text value="Test"/>
                  </code>
                  <!--ObservationDefinition/IonAnalysisHydrogen-->
                  <definitionCanonical value="ObservationDefinition/fd17b5d6-9fe1-91c4-2d06-47cb5b295e72"/>
               </action>
               <action>
                  <code>
                     <text value="Test"/>
                  </code>
                  <!--ObservationDefinition/IonAnalysisNitrogen-->
                  <definitionCanonical value="ObservationDefinition/fd18b5d6-9fe1-91c4-2d06-47cb5b295e72"/>
               </action>
               <action>
                  <code>
                     <text value="Test"/>
                  </code>
                  <!--ObservationDefinition/IonAnalysisFlourine-->
                  <definitionCanonical value="ObservationDefinition/fd17b5d6-9fe1-91c5-2d06-47cb5b295e72"/>
               </action>
            </action>
            <action>
               <prefix value="2.3.fig7"/>
               <title value="Structure of Stelbatolol With Number Assignments"/>
               <description value="Description of this step"/>
               <code>
                  <coding>
                     <system value="http://hl7.org/fhir/uv/pharm-quality/CodeSystem/cs-characterizationStep-local-pq"/>
                     <code value="structure"/>
                     <display value="Structure"/>
                  </coding>
               </code>
               <action>
                  <code>
                     <text value="Test"/>
                  </code>
                  <!--ObservationDefinition/Structure-->
                  <definitionCanonical value="ObservationDefinition/fd17b5d6-9ff1-91c5-2d06-47cb5b295e72"/>
               </action>
            </action>
            <action>
               <prefix value="3"/>
               <title value="Interpretation of the 1D 1H NMR and 13C NMR Spectra of Stelbatolol in DMSO-d6"/>
               <description value="Description of this step"/>
               <code>
                  <coding>
                     <system value="http://hl7.org/fhir/uv/pharm-quality/CodeSystem/cs-characterizationStep-local-pq"/>
                     <code value="nmr"/>
                     <display value="NMR"/>
                  </coding>
               </code>
               <action>
                  <code>
                     <text value="Test"/>
                  </code>
                  <!--ObservationDefinition/NMR-->
                  <definitionCanonical value="ObservationDefinition/fd17b5d6-9fe2-91c2-2d06-47cb5b295e72"/>
               </action>
            </action>
            <action>
               <prefix value="2.6.fig10"/>
               <title value="Molecular Structure of Stalbatalol (Lot SUB1Amgen) Determined by Single Crystal X-ray Diffraction Analysis"/>
               <description value="Description of this step"/>
               <code>
                  <coding>
                     <system value="http://hl7.org/fhir/uv/pharm-quality/CodeSystem/cs-characterizationStep-local-pq"/>
                     <code value="MolecularStructure"/>
                     <display value="Molecular Structure"/>
                  </coding>
               </code>
               <action>
                  <code>
                     <text value="Test"/>
                  </code>
                  <!--ObservationDefinition/MolecularStructure-->
                  <definitionCanonical value="ObservationDefinition/fd17b5d6-9ff1-91c5-2d06-47cb5b295e74"/>
               </action>
            </action>
            <action>
               <prefix value="3.2.fig11"/>
               <title value="X-ray Powder Diffractogram of Stalbatolol (Lot SUB1Amgen)"/>
               <description value="Description of this step"/>
               <code>
                  <coding>
                     <system value="http://hl7.org/fhir/uv/pharm-quality/CodeSystem/cs-characterizationStep-local-pq"/>
                     <code value="diffractogram"/>
                     <display value="Diffractogram"/>
                  </coding>
               </code>
               <action>
                  <code>
                     <text value="Test"/>
                  </code>
                  <!--ObservationDefinition/Diffractogram-->
                  <definitionCanonical value="ObservationDefinition/fd17b5d6-9ff1-91c5-2d06-47cb5b295e73"/>
               </action>
            </action>
            <action>
               <prefix value="2.4.fig9"/>
               <title value="UV/Visible Absorption Spectrum of Stelbataol (Lot SUB1Amgen)"/>
               <description value="Description of this step"/>
               <code>
                  <coding>
                     <system value="http://hl7.org/fhir/uv/pharm-quality/CodeSystem/cs-characterizationStep-local-pq"/>
                     <code value="absorption"/>
                     <display value="Absorption"/>
                  </coding>
               </code>
               <action>
                  <code>
                     <text value="Test"/>
                  </code>
                  <!--ObservationDefinition/Absorption-->
                  <definitionCanonical value="ObservationDefinition/fd17b5d6-9ff1-91c5-2d06-47cb5b295e75"/>
               </action>
            </action>
         </PlanDefinition>
      </resource>
   </entry>
   <!-- Diagnostic report doesn't carry much extra value but does collect all the observations -->
   <entry>
      <fullUrl value="urn:uuid:b664977d-799d-a1ce-928a-5def2a9955bd"/>
      <resource>
         <DiagnosticReport>
                <!-- ideally this wants a subject, but it can only be a Medication (batch) and we have multiple. 
                     however the observations themselves do have subjects -->
            <id value="processValidationReport"/>
            <extension url="http://hl7.org/fhir/StructureDefinition/workflow-triggeredBy">
               <valueReference>
                        <!--PlanDefinition/characterizationProtocol-->
                  <reference value="PlanDefinition/2038e4c7-22b8-4c56-2d28-6c077648763f"/>
               </valueReference>
            </extension>
            <status value="final"/>
            <code>
               <coding>
                  <system value="http://hl7.org/fhir/uv/pharm-quality/CodeSystem/cs-reportType-local-pq"/>
                  <code value="Characterization Report"/>
                  <display value="Characterization Report"/>
               </coding>
            </code>
            <effectiveDateTime value="2020-12"/>
            <result><!--Observation/elementalAnalysisCarbon-->
               <reference value="Observation/9c56948c-2a39-6609-1c01-4d197ea57a33"/>
            </result>
            <result><!--Observation/elementalAnalysisHydrogen-->
               <reference value="Observation/9c56948c-2a39-6609-1c01-4d197ea57a34"/>
            </result>
            <result><!--Observation/elementalAnalysisNitrogen-->
               <reference value="Observation/9c56948c-2a39-6609-1c01-4d197ea57a35"/>
            </result>
            <result><!--Observation/elementalAnalysisFlourine-->
               <reference value="Observation/9c56948c-3a39-6609-1c01-4d197ea57a35"/>
            </result>
            <result><!--Observation/ionAnalysisCarbon-->
               <reference value="Observation/9c56948c-3a39-6609-1c01-4d197ea57a33"/>
            </result>
            <result><!--Observation/ionAnalysisHydrogen-->
               <reference value="Observation/9c56948c-4a39-6609-1c01-4d197ea57a34"/>
            </result>
            <result><!--Observation/ionAnalysisNitrogen-->
               <reference value="Observation/9c56948c-5a39-6609-1c01-4d197ea57a35"/>
            </result>
            <result><!--Observation/ionAnalysisFlourine-->
               <reference value="Observation/9c56948c-6a39-6609-1c01-4d197ea57a35"/>
            </result>
            <result><!--Observation/structure-->
               <reference value="Observation/9c56948c-2b39-6609-1c01-4d197ea57a33"/>
            </result>
            <result><!--Observation/nmr3-->
               <reference value="Observation/fd27b5d6-9fe2-91c2-2d06-47cb5b295e72"/>
            </result>
            <result><!--Observation/nmr4-->
               <reference value="Observation/fd27b5d6-9fe2-91c2-2d06-47cb5b295e73"/>
            </result>
            <result><!--Observation/nmr5-->
               <reference value="Observation/fd27b5d6-9fe2-91c2-2d06-47cb5b295e74"/>
            </result>
            <result><!--Observation/nmr6-->
               <reference value="Observation/fd27b5d6-9fe2-91c2-2d16-47cb5b295e74"/>
            </result>
            <result><!--Observation/nmr8-->
               <reference value="Observation/fd27b5d6-9fe2-91c2-2d26-47cb5b295e74"/>
            </result>
            <result><!--Observation/nmr9-->
               <reference value="Observation/fd27b5d6-9fe2-91c2-2d36-47cb5b295e74"/>
            </result>
            <result><!--Observation/nmr10-->
               <reference value="Observation/fd27b5d6-9fe2-91c2-2d46-47cb5b295e74"/>
            </result>
            <result><!--Observation/fig8absorption-->
               <reference value="Observation/9c56948c-2b39-6609-1c01-4d197ea57a35"/>
            </result>
            <result><!--Observation/fig10molecularstructure-->
               <reference value="Observation/9c56948c-2b39-6619-1c01-4d197ea57a34"/>
            </result>
            <result><!--Observation/fig11xray-->
               <reference value="Observation/9c56948c-2b39-6609-1c01-4d197ea57a34"/>
            </result>
            <conclusion value="The samples have been assessed and the conclusion is..."/>
         </DiagnosticReport>
      </resource>
   </entry>
   <entry>
      <fullUrl value="urn:uuid:fd17b5d6-9fe1-91c2-2d06-47cb5b295e72"/>
      <resource>
         <ObservationDefinition>
            	<!--ElementalAnalysisCarbon-->
            <id value="fd17b5d6-9fe1-91c2-2d06-47cb5b295e72"/>
            <!--http://example-server.com/fhir/ObservationDefinition/fd17b5d6-9fe1-91c2-2d06-47cb5b295e72-->
            <url value="http://example-server.com/fhir/ObservationDefinition/fd17b5d6-9fe1-91c2-2d06-47cb5b295e72"/>
            <title value="C"/>
            <status value="active"/>
            <code>
               <coding>
                  <system value="http://hl7.org/fhir/uv/pharm-quality/CodeSystem/cs-local-codes-drug-pq"/>
                  <code value="ElementalAnalysisCarbon"/>
                  <display value="Elemental Analysis Carbon (%)"/>
               </coding>
               <text value="Elemental Analysis Carbon (%)"/>
            </code>
            <qualifiedValue>
               <extension url="http://hl7.org/fhir/uv/pharm-quality/StructureDefinition/Extension-qualified-value-display-pq">
                  <valueString value="83.75"/>
               </extension>
               <range>
                  <low>
                     <value value="83.75"/>
                     <unit value="%"/>
                     <system value="http://unitsofmeasure.org"/>
                     <code value="%"/>
                  </low>
                  <high>
                     <value value="83.75"/>
                     <unit value="%"/>
                     <system value="http://unitsofmeasure.org"/>
                     <code value="%"/>
                  </high>
               </range>
            </qualifiedValue>
         </ObservationDefinition>
      </resource>
   </entry>
   <entry>
      <fullUrl value="urn:uuid:fd17b5d6-9fe1-91c2-2d06-47cb5b295e73"/>
      <resource>
         <ObservationDefinition>
				<!--ElementalAnalysisHydrogen-->
            <id value="fd17b5d6-9fe1-91c2-2d06-47cb5b295e73"/>
            <!--http://example-server.com/fhir/ObservationDefinition/fd17b5d6-9fe1-91c2-2d06-47cb5b295e72-->
            <url value="http://example-server.com/fhir/ObservationDefinition/fd17b5d6-9fe1-91c2-2d06-47cb5b295e73"/>
            <title value="H"/>
            <status value="active"/>
            <code>
               <coding>
                  <system value="http://hl7.org/fhir/uv/pharm-quality/CodeSystem/cs-local-codes-drug-pq"/>
                  <code value="ElementalAnalysisHydrogen"/>
                  <display value="Elemental Analysis Hydrogen (%)"/>
               </coding>
               <text value="Elemental Analysis Hydrogen (%)"/>
            </code>
            <qualifiedValue>
               <extension url="http://hl7.org/fhir/uv/pharm-quality/StructureDefinition/Extension-qualified-value-display-pq">
                  <valueString value="2.75"/>
               </extension>
               <range>
                  <low>
                     <value value="2.75"/>
                     <unit value="%"/>
                     <system value="http://unitsofmeasure.org"/>
                     <code value="%"/>
                  </low>
                  <high>
                     <value value="2.75"/>
                     <unit value="%"/>
                     <system value="http://unitsofmeasure.org"/>
                     <code value="%"/>
                  </high>
               </range>
            </qualifiedValue>
         </ObservationDefinition>
      </resource>
   </entry>
   <entry>
      <fullUrl value="urn:uuid:fd17b5d6-9fe1-91c2-2d06-47cb5b295e74"/>
      <resource>
         <ObservationDefinition>
				<!--ElementalAnalysisNitrogen-->
            <id value="fd17b5d6-9fe1-91c2-2d06-47cb5b295e74"/>
            <!--http://example-server.com/fhir/ObservationDefinition/fd17b5d6-9fe1-91c2-2d06-47cb5b295e72-->
            <url value="http://example-server.com/fhir/ObservationDefinition/fd17b5d6-9fe1-91c2-2d06-47cb5b295e74"/>
            <title value="N"/>
            <status value="active"/>
            <code>
               <coding>
                  <system value="http://hl7.org/fhir/uv/pharm-quality/CodeSystem/cs-local-codes-drug-pq"/>
                  <code value="ElementalAnalysisNitrogen"/>
                  <display value="Elemental Analysis Nitrogen (%)"/>
               </coding>
               <text value="Elemental Analysis Nitrogen (%)"/>
            </code>
            <qualifiedValue>
               <extension url="http://hl7.org/fhir/uv/pharm-quality/StructureDefinition/Extension-qualified-value-display-pq">
                  <valueString value="5.55"/>
               </extension>
               <range>
                  <low>
                     <value value="5.55"/>
                     <unit value="%"/>
                     <system value="http://unitsofmeasure.org"/>
                     <code value="%"/>
                  </low>
                  <high>
                     <value value="5.55"/>
                     <unit value="%"/>
                     <system value="http://unitsofmeasure.org"/>
                     <code value="%"/>
                  </high>
               </range>
            </qualifiedValue>
         </ObservationDefinition>
      </resource>
   </entry>
   <entry>
      <fullUrl value="urn:uuid:fd17b5d6-9fe1-91c2-2d06-47cb5b295e75"/>
      <resource>
         <ObservationDefinition>
				<!--ElementalAnalysisFlourine-->
            <id value="fd17b5d6-9fe1-91c2-2d06-47cb5b295e75"/>
            <!--http://example-server.com/fhir/ObservationDefinition/fd17b5d6-9fe1-91c2-2d06-47cb5b295e72-->
            <url value="http://example-server.com/fhir/ObservationDefinition/fd17b5d6-9fe1-91c2-2d06-47cb5b295e75"/>
            <title value="F"/>
            <status value="active"/>
            <code>
               <coding>
                  <system value="http://hl7.org/fhir/uv/pharm-quality/CodeSystem/cs-local-codes-drug-pq"/>
                  <code value="ElementalAnalysisFlourine"/>
                  <display value="Elemental Analysis Flourine (%)"/>
               </coding>
               <text value="Elemental Analysis Flourine (%)"/>
            </code>
            <qualifiedValue>
               <extension url="http://hl7.org/fhir/uv/pharm-quality/StructureDefinition/Extension-qualified-value-display-pq">
                  <valueString value="7.75"/>
               </extension>
               <range>
                  <low>
                     <value value="7.75"/>
                     <unit value="%"/>
                     <system value="http://unitsofmeasure.org"/>
                     <code value="%"/>
                  </low>
                  <high>
                     <value value="7.75"/>
                     <unit value="%"/>
                     <system value="http://unitsofmeasure.org"/>
                     <code value="%"/>
                  </high>
               </range>
            </qualifiedValue>
         </ObservationDefinition>
      </resource>
   </entry>
   <entry>
      <fullUrl value="urn:uuid:fd17b5d6-9fe1-91c3-2d06-47cb5b295e72"/>
      <resource>
         <ObservationDefinition>
            	<!--IonAnalysisCarbon-->
            <id value="fd17b5d6-9fe1-91c3-2d06-47cb5b295e72"/>
            <!--http://example-server.com/fhir/ObservationDefinition/fd17b5d6-9fe1-91c2-2d06-47cb5b295e72-->
            <url value="http://example-server.com/fhir/ObservationDefinition/fd17b5d6-9fe1-91c3-2d06-47cb5b295e72"/>
            <title value="C"/>
            <status value="active"/>
            <code>
               <coding>
                  <system value="http://hl7.org/fhir/uv/pharm-quality/CodeSystem/cs-local-codes-drug-pq"/>
                  <code value="IonAnalysisCarbon"/>
                  <display value="Ion Analysis Carbon (%)"/>
               </coding>
               <text value="Ion Analysis Carbon (%)"/>
            </code>
            <qualifiedValue>
               <extension url="http://hl7.org/fhir/uv/pharm-quality/StructureDefinition/Extension-qualified-value-display-pq">
                  <valueString value="1.125"/>
               </extension>
               <range>
                  <low>
                     <value value="1.125"/>
                     <!-- unitless ratio -->
                  </low>
                  <high>
                     <value value="1.125"/>
                  </high>
               </range>
            </qualifiedValue>
            <component>
               <code>
                  <coding>
                     <system value="http://hl7.org/fhir/uv/pharm-quality/CodeSystem/cs-local-codes-drug-pq"/>
                     <code value="IonAnalysisCarbonMassAccuracy"/>
                     <display value="Ion Analysis Carbon - Mass Accuracy"/>
                  </coding>
               </code>
            </component>
         </ObservationDefinition>
      </resource>
   </entry>
   <entry>
      <fullUrl value="urn:uuid:fd17b5d6-9fe1-91c4-2d06-47cb5b295e72"/>
      <resource>
         <ObservationDefinition>
				<!--IonAnalysisHydrogen-->
            <id value="fd17b5d6-9fe1-91c4-2d06-47cb5b295e72"/>
            <!--http://example-server.com/fhir/ObservationDefinition/fd17b5d6-9fe1-91c2-2d06-47cb5b295e72-->
            <url value="http://example-server.com/fhir/ObservationDefinition/fd17b5d6-9fe1-91c4-2d06-47cb5b295e72"/>
            <title value="H"/>
            <status value="active"/>
            <code>
               <coding>
                  <system value="http://hl7.org/fhir/uv/pharm-quality/CodeSystem/cs-local-codes-drug-pq"/>
                  <code value="IonAnalysisHydrogen"/>
                  <display value="Ion Analysis Hydrogen (%)"/>
               </coding>
               <text value="Ion Analysis Hydrogen (%)"/>
            </code>
            <qualifiedValue>
               <extension url="http://hl7.org/fhir/uv/pharm-quality/StructureDefinition/Extension-qualified-value-display-pq">
                  <valueString value="2.125"/>
               </extension>
               <range>
                  <low>
                     <value value="2.125"/>
                     <!-- unitless ratio -->
                  </low>
                  <high>
                     <value value="2.125"/>
                  </high>
               </range>
            </qualifiedValue>
         </ObservationDefinition>
      </resource>
   </entry>
   <entry>
      <fullUrl value="urn:uuid:fd18b5d6-9fe1-91c4-2d06-47cb5b295e72"/>
      <resource>
         <ObservationDefinition>
				<!--IonAnalysisNitrogen-->
            <id value="fd18b5d6-9fe1-91c4-2d06-47cb5b295e72"/>
            <!--http://example-server.com/fhir/ObservationDefinition/fd17b5d6-9fe1-91c2-2d06-47cb5b295e72-->
            <url value="http://example-server.com/fhir/ObservationDefinition/fd18b5d6-9fe1-91c4-2d06-47cb5b295e72"/>
            <title value="N"/>
            <status value="active"/>
            <code>
               <coding>
                  <system value="http://hl7.org/fhir/uv/pharm-quality/CodeSystem/cs-local-codes-drug-pq"/>
                  <code value="IonAnalysisNitrogen"/>
                  <display value="Ion Analysis Nitrogen (%)"/>
               </coding>
               <text value="Ion Analysis Nitrogen (%)"/>
            </code>
            <qualifiedValue>
               <extension url="http://hl7.org/fhir/uv/pharm-quality/StructureDefinition/Extension-qualified-value-display-pq">
                  <valueString value="3.125"/>
               </extension>
               <range>
                  <low>
                     <value value="3.125"/>
                     <!-- unitless ratio -->
                  </low>
                  <high>
                     <value value="3.125"/>
                  </high>
               </range>
            </qualifiedValue>
         </ObservationDefinition>
      </resource>
   </entry>
   <entry>
      <fullUrl value="urn:uuid:fd17b5d6-9fe1-91c5-2d06-47cb5b295e72"/>
      <resource>
         <ObservationDefinition>
				<!--IonAnalysisFlourine-->
            <id value="fd17b5d6-9fe1-91c5-2d06-47cb5b295e72"/>
            <!--http://example-server.com/fhir/ObservationDefinition/fd17b5d6-9fe1-91c2-2d06-47cb5b295e72-->
            <url value="http://example-server.com/fhir/ObservationDefinition/fd17b5d6-9fe1-91c5-2d06-47cb5b295e72"/>
            <title value="F"/>
            <status value="active"/>
            <code>
               <coding>
                  <system value="http://hl7.org/fhir/uv/pharm-quality/CodeSystem/cs-local-codes-drug-pq"/>
                  <code value="IonAnalysisFlourine"/>
                  <display value="Ion Analysis Flourine (%)"/>
               </coding>
               <text value="Ion Analysis Flourine (%)"/>
            </code>
            <qualifiedValue>
               <extension url="http://hl7.org/fhir/uv/pharm-quality/StructureDefinition/Extension-qualified-value-display-pq">
                  <valueString value="4.125"/>
               </extension>
               <range>
                  <low>
                     <value value="4.125"/>
                     <!-- unitless ratio -->
                  </low>
                  <high>
                     <value value="4.125"/>
                  </high>
               </range>
            </qualifiedValue>
         </ObservationDefinition>
      </resource>
   </entry>
   <entry>
      <fullUrl value="urn:uuid:fd17b5d6-9fe2-91c2-2d06-47cb5b295e72"/>
      <resource>
         <ObservationDefinition>
            	<!--NMR-->
            <id value="fd17b5d6-9fe2-91c2-2d06-47cb5b295e72"/>
            <!--http://example-server.com/fhir/ObservationDefinition/fd17b5d6-9fe1-91c2-2d06-47cb5b295e72-->
            <url value="http://example-server.com/fhir/ObservationDefinition/fd17b5d6-9fe2-91c2-2d06-47cb5b295e72"/>
            <title value="NMR"/>
            <status value="active"/>
            <code>
               <coding>
                  <system value="http://hl7.org/fhir/uv/pharm-quality/CodeSystem/cs-local-codes-drug-pq"/>
                  <code value="NMR"/>
                  <display value="NMR"/>
               </coding>
               <text value="NMR"/>
            </code>
            <!-- 3 components, position, H, C -->
            <component>
               <code>
                  <coding>
                     <system value="http://hl7.org/fhir/uv/pharm-quality/CodeSystem/cs-local-codes-drug-pq"/>
                     <code value="NMR-H"/>
                     <display value="NMR-H"/>
                  </coding>
               </code>
            </component>
            <component>
               <code>
                  <coding>
                     <system value="http://hl7.org/fhir/uv/pharm-quality/CodeSystem/cs-local-codes-drug-pq"/>
                     <code value="NMR-C"/>
                     <display value="NMR-C"/>
                  </coding>
               </code>
            </component>
            <component> <!-- are expected to have a component that says number of samples -->
               <code>
                  <coding>
                     <system value="http://hl7.org/fhir/uv/pharm-quality/CodeSystem/cs-local-codes-drug-pq"/>
                     <code value="POS"/>
                     <display value="Structure Position"/>
                  </coding>
               </code>
            </component>
         </ObservationDefinition>
      </resource>
   </entry>
   <entry>
      <fullUrl value="urn:uuid:fd17b5d6-9ff1-91c5-2d06-47cb5b295e72"/>
      <resource>
         <ObservationDefinition>
				<!--Structure-->
            <id value="fd17b5d6-9ff1-91c5-2d06-47cb5b295e72"/>
            <!--http://example-server.com/fhir/ObservationDefinition/fd17b5d6-9fe1-91c2-2d06-47cb5b295e72-->
            <url value="http://example-server.com/fhir/ObservationDefinition/fd17b5d6-9ff1-91c5-2d06-47cb5b295e72"/>
            <title value="Structure (needed?)"/>
            <status value="active"/>
            <code>
               <coding>
                  <system value="http://hl7.org/fhir/uv/pharm-quality/CodeSystem/cs-local-codes-drug-pq"/>
                  <code value="Chemical Structure"/>
                  <display value="Chemical Structure"/>
               </coding>
               <text value="Chemical Structure"/>
            </code>
         </ObservationDefinition>
      </resource>
   </entry>
   <entry>
      <fullUrl value="urn:uuid:fd17b5d6-9ff1-91c5-2d06-47cb5b295e73"/>
      <resource>
         <ObservationDefinition>
				<!--Diffractogram-->
            <id value="fd17b5d6-9ff1-91c5-2d06-47cb5b295e73"/>
            <!--http://example-server.com/fhir/ObservationDefinition/fd17b5d6-9fe1-91c2-2d06-47cb5b295e73-->
            <url value="http://example-server.com/fhir/ObservationDefinition/fd17b5d6-9ff1-91c5-2d06-47cb5b295e73"/>
            <title value="Diffractogram (todo needed?)"/>
            <status value="active"/>
            <code>
               <coding>
                  <system value="http://hl7.org/fhir/uv/pharm-quality/CodeSystem/cs-local-codes-drug-pq"/>
                  <code value="Diffractogram"/>
                  <display value="Diffractogram"/>
               </coding>
               <text value="Diffractogram"/>
            </code>
         </ObservationDefinition>
      </resource>
   </entry>
   <entry>
      <fullUrl value="urn:uuid:fd17b5d6-9ff1-91c5-2d06-47cb5b295e74"/>
      <resource>
         <ObservationDefinition>
				<!--MolecularStructure-->
            <id value="fd17b5d6-9ff1-91c5-2d06-47cb5b295e74"/>
            <!--http://example-server.com/fhir/ObservationDefinition/fd17b5d6-9fe1-91c2-2d06-47cb5b295e74-->
            <url value="http://example-server.com/fhir/ObservationDefinition/fd17b5d6-9ff1-91c5-2d06-47cb5b295e74"/>
            <status value="active"/>
            <code>
               <coding>
                  <system value="http://hl7.org/fhir/uv/pharm-quality/CodeSystem/cs-local-codes-drug-pq"/>
                  <code value="MolecularStructure"/>
                  <display value="Molecular Structure"/>
               </coding>
               <text value="MolecularStructure"/>
            </code>
         </ObservationDefinition>
      </resource>
   </entry>
   <entry>
      <fullUrl value="urn:uuid:fd17b5d6-9ff1-91c5-2d06-47cb5b295e75"/>
      <resource>
         <ObservationDefinition>
				<!--Absorption-->
            <id value="fd17b5d6-9ff1-91c5-2d06-47cb5b295e75"/>
            <!--http://example-server.com/fhir/ObservationDefinition/fd17b5d6-9fe1-91c2-2d06-47cb5b295e75-->
            <url value="http://example-server.com/fhir/ObservationDefinition/fd17b5d6-9ff1-91c5-2d06-47cb5b295e75"/>
            <status value="active"/>
            <code>
               <coding>
                  <system value="http://hl7.org/fhir/uv/pharm-quality/CodeSystem/cs-local-codes-drug-pq"/>
                  <code value="Absorption"/>
                  <display value="Absorption"/>
               </coding>
               <text value="Absorption"/>
            </code>
         </ObservationDefinition>
      </resource>
   </entry>
   <entry>
      <fullUrl value="urn:uuid:9c56948c-2a39-6609-1c01-4d197ea57a33"/>
      <resource>
         <Observation>
            	<!--elementalAnalysisCarbon-->
            <id value="9c56948c-2a39-6609-1c01-4d197ea57a33"/>
            <instantiatesReference>
                	<!--ObservationDefinition/ElementalAnalysisCarbon-->
               <reference value="ObservationDefinition/fd17b5d6-9fe1-91c2-2d06-47cb5b295e72"/>
            </instantiatesReference>
            <status value="final"/>
            <code>
               <coding>
                  <system value="http://hl7.org/fhir/uv/pharm-quality/CodeSystem/cs-local-codes-drug-pq"/>
                  <code value="ElementalAnalysisCarbon"/>
                  <display value="Elemental Analysis Carbon (%)"/>
               </coding>
               <text value="Elemental Analysis Carbon (%)"/>
            </code>
            <subject>
            		<!--Substance/substance-dxpq-ex1-unlinked-->
               <reference value="Substance/fc078762-81c5-5656-9744-13c7ad1e595b"/>
            </subject>
            <effectiveDateTime value="2023-01-01T12:00:00Z"/>
            <performer>
					<!--Organization/378fbe5f-5926-3a5c-4c64-5428df877b08-->
               <reference value="Organization/378fbe5f-5926-3a5c-4c64-5428df877b08"/>
            </performer>
            <valueQuantity>
               <value value="83.75"/>
               <unit value="%"/>
            </valueQuantity>
         </Observation>
      </resource>
   </entry>
   <entry>
      <fullUrl value="urn:uuid:9c56948c-2a39-6609-1c01-4d197ea57a34"/>
      <resource>
         <Observation>
				<!--elementalAnalysisHydrogen-->
            <id value="9c56948c-2a39-6609-1c01-4d197ea57a34"/>
            <instantiatesReference>
					<!--ObservationDefinition/ElementalAnalysisHydrogen-->
               <reference value="ObservationDefinition/fd17b5d6-9fe1-91c2-2d06-47cb5b295e73"/>
            </instantiatesReference>
            <status value="final"/>
            <code>
               <coding>
                  <system value="http://hl7.org/fhir/uv/pharm-quality/CodeSystem/cs-local-codes-drug-pq"/>
                  <code value="ElementalAnalysisHydrogen"/>
                  <display value="Elemental Analysis Hydrogen (%)"/>
               </coding>
               <text value="Elemental Analysis Hydrogen (%)"/>
            </code>
            <subject>
					<!--Substance/substance-dxpq-ex1-unlinked-->
               <reference value="Substance/fc078762-81c5-5656-9744-13c7ad1e595b"/>
            </subject>
            <effectiveDateTime value="2023-01-01T12:00:00Z"/>
            <performer>
					<!--Organization/378fbe5f-5926-3a5c-4c64-5428df877b08-->
               <reference value="Organization/378fbe5f-5926-3a5c-4c64-5428df877b08"/>
            </performer>
            <valueQuantity>
               <value value="2.75"/>
               <unit value="%"/>
            </valueQuantity>
         </Observation>
      </resource>
   </entry>
   <entry>
      <fullUrl value="urn:uuid:9c56948c-2a39-6609-1c01-4d197ea57a35"/>
      <resource>
         <Observation>
				<!--elementalAnalysisNitrogen-->
            <id value="9c56948c-2a39-6609-1c01-4d197ea57a35"/>
            <instantiatesReference>
					<!--ObservationDefinition/ElementalAnalysisNitrogen-->
               <reference value="ObservationDefinition/fd17b5d6-9fe1-91c2-2d06-47cb5b295e74"/>
            </instantiatesReference>
            <status value="final"/>
            <code>
               <coding>
                  <system value="http://hl7.org/fhir/uv/pharm-quality/CodeSystem/cs-local-codes-drug-pq"/>
                  <code value="ElementalAnalysisNitrogen"/>
                  <display value="Elemental Analysis Nitrogen (%)"/>
               </coding>
               <text value="Elemental Analysis Nitrogen (%)"/>
            </code>
            <subject>
					<!--Substance/substance-dxpq-ex1-unlinked-->
               <reference value="Substance/fc078762-81c5-5656-9744-13c7ad1e595b"/>
            </subject>
            <effectiveDateTime value="2023-01-01T12:00:00Z"/>
            <performer>
					<!--Organization/378fbe5f-5926-3a5c-4c64-5428df877b08-->
               <reference value="Organization/378fbe5f-5926-3a5c-4c64-5428df877b08"/>
            </performer>
            <valueQuantity>
               <value value="5.55"/>
               <unit value="%"/>
            </valueQuantity>
         </Observation>
      </resource>
   </entry>
   <entry>
      <fullUrl value="urn:uuid:9c56948c-3a39-6609-1c01-4d197ea57a35"/>
      <resource>
         <Observation>
				<!--elementalAnalysisFlourine-->
            <id value="9c56948c-3a39-6609-1c01-4d197ea57a35"/>
            <instantiatesReference>
					<!--ObservationDefinition/ElementalAnalysisFlourine-->
               <reference value="ObservationDefinition/fd17b5d6-9fe1-91c2-2d06-47cb5b295e75"/>
            </instantiatesReference>
            <status value="final"/>
            <code>
               <coding>
                  <system value="http://hl7.org/fhir/uv/pharm-quality/CodeSystem/cs-local-codes-drug-pq"/>
                  <code value="ElementalAnalysisFlourine"/>
                  <display value="Elemental Analysis Flourine (%)"/>
               </coding>
               <text value="Elemental Analysis Flourine (%)"/>
            </code>
            <subject>
					<!--Substance/substance-dxpq-ex1-unlinked-->
               <reference value="Substance/fc078762-81c5-5656-9744-13c7ad1e595b"/>
            </subject>
            <effectiveDateTime value="2023-01-01T12:00:00Z"/>
            <performer>
					<!--Organization/378fbe5f-5926-3a5c-4c64-5428df877b08-->
               <reference value="Organization/378fbe5f-5926-3a5c-4c64-5428df877b08"/>
            </performer>
            <valueQuantity>
               <value value="7.75"/>
               <unit value="%"/>
            </valueQuantity>
         </Observation>
      </resource>
   </entry>
   <entry>
      <fullUrl value="urn:uuid:9c56948c-3a39-6609-1c01-4d197ea57a33"/>
      <resource>
         <Observation>
				<!--ionAnalysisCarbon-->
            <id value="9c56948c-3a39-6609-1c01-4d197ea57a33"/>
            <instantiatesReference>
					<!--ObservationDefinition/IonAnalysisCarbon-->
               <reference value="ObservationDefinition/fd17b5d6-9fe1-91c3-2d06-47cb5b295e72"/>
            </instantiatesReference>
            <status value="final"/>
            <code>
               <coding>
                  <system value="http://hl7.org/fhir/uv/pharm-quality/CodeSystem/cs-local-codes-drug-pq"/>
                  <code value="IonAnalysisCarbon"/>
                  <display value="Ion Analysis Carbon (%)"/>
               </coding>
               <text value="Ion Analysis Carbon (%)"/>
            </code>
            <subject>
					<!--Substance/substance-dxpq-ex1-unlinked-->
               <reference value="Substance/fc078762-81c5-5656-9744-13c7ad1e595b"/>
            </subject>
            <effectiveDateTime value="2023-01-01T12:00:00Z"/>
            <performer>
					<!--Organization/378fbe5f-5926-3a5c-4c64-5428df877b08-->
               <reference value="Organization/378fbe5f-5926-3a5c-4c64-5428df877b08"/>
            </performer>
            <valueQuantity>
               <value value="1.125"/>
            </valueQuantity>
            <component>
               <code>
                  <coding>
                     <system value="http://hl7.org/fhir/uv/pharm-quality/CodeSystem/cs-local-codes-drug-pq"/>
                     <code value="IonAnalysisCarbonMassAccuracy"/>
                     <display value="Ion Analysis Carbon - Mass Accuracy"/>
                  </coding>
               </code>
               <valueQuantity>
                  <value value="0.001">
                     <extension url="http://hl7.org/fhir/StructureDefinition/rendered-value">
                        <valueString value="+/- 0.001"/>
                     </extension>
                  </value>
               </valueQuantity>
            </component>
         </Observation>
      </resource>
   </entry>
   <entry>
      <fullUrl value="urn:uuid:9c56948c-4a39-6609-1c01-4d197ea57a34"/>
      <resource>
         <Observation>
				<!--ionAnalysisHydrogen-->
            <id value="9c56948c-4a39-6609-1c01-4d197ea57a34"/>
            <instantiatesReference>
					<!--ObservationDefinition/IonAnalysisHydrogen-->
               <reference value="ObservationDefinition/fd17b5d6-9fe1-91c4-2d06-47cb5b295e72"/>
            </instantiatesReference>
            <status value="final"/>
            <code>
               <coding>
                  <system value="http://hl7.org/fhir/uv/pharm-quality/CodeSystem/cs-local-codes-drug-pq"/>
                  <code value="IonAnalysisHydrogen"/>
                  <display value="Ion Analysis Hydrogen (%)"/>
               </coding>
               <text value="Ion Analysis Hydrogen (%)"/>
            </code>
            <subject>
					<!--Substance/substance-dxpq-ex1-unlinked-->
               <reference value="Substance/fc078762-81c5-5656-9744-13c7ad1e595b"/>
            </subject>
            <effectiveDateTime value="2023-01-01T12:00:00Z"/>
            <performer>
					<!--Organization/378fbe5f-5926-3a5c-4c64-5428df877b08-->
               <reference value="Organization/378fbe5f-5926-3a5c-4c64-5428df877b08"/>
            </performer>
            <valueQuantity>
               <value value="2.125"/>
            </valueQuantity>
            <component>
               <code>
                  <coding>
                     <system value="http://hl7.org/fhir/uv/pharm-quality/CodeSystem/cs-local-codes-drug-pq"/>
                     <code value="IonAnalysisHydrogenMassAccuracy"/>
                     <display value="Ion Analysis Hydrogen - Mass Accuracy"/>
                  </coding>
               </code>
               <valueQuantity>
                  <value value="0.0055">
                     <extension url="http://hl7.org/fhir/StructureDefinition/rendered-value">
                        <valueString value="+/- 0.006"/>
                     </extension>
                  </value>
               </valueQuantity>
            </component>
         </Observation>
      </resource>
   </entry>
   <entry>
      <fullUrl value="urn:uuid:9c56948c-5a39-6609-1c01-4d197ea57a35"/>
      <resource>
         <Observation>
				<!--ionAnalysisNitrogen-->
            <id value="9c56948c-5a39-6609-1c01-4d197ea57a35"/>
            <instantiatesReference>
					<!--ObservationDefinition/IonAnalysisNitrogen-->
               <reference value="ObservationDefinition/fd18b5d6-9fe1-91c4-2d06-47cb5b295e72"/>
            </instantiatesReference>
            <status value="final"/>
            <code>
               <coding>
                  <system value="http://hl7.org/fhir/uv/pharm-quality/CodeSystem/cs-local-codes-drug-pq"/>
                  <code value="IonAnalysisNitrogen"/>
                  <display value="Ion Analysis Nitrogen (%)"/>
               </coding>
               <text value="Ion Analysis Nitrogen (%)"/>
            </code>
            <subject>
					<!--Substance/substance-dxpq-ex1-unlinked-->
               <reference value="Substance/fc078762-81c5-5656-9744-13c7ad1e595b"/>
            </subject>
            <effectiveDateTime value="2023-01-01T12:00:00Z"/>
            <performer>
					<!--Organization/378fbe5f-5926-3a5c-4c64-5428df877b08-->
               <reference value="Organization/378fbe5f-5926-3a5c-4c64-5428df877b08"/>
            </performer>
            <valueQuantity>
               <value value="3.125"/>
            </valueQuantity>
            <component>
               <code>
                  <coding>
                     <system value="http://hl7.org/fhir/uv/pharm-quality/CodeSystem/cs-local-codes-drug-pq"/>
                     <code value="IonAnalysisNitrogenMassAccuracy"/>
                     <display value="Ion Analysis Nitrogen - Mass Accuracy"/>
                  </coding>
               </code>
               <valueQuantity>
                  <value value="0.003">
                     <extension url="http://hl7.org/fhir/StructureDefinition/rendered-value">
                        <valueString value="+/- 0.003"/>
                     </extension>
                  </value>
               </valueQuantity>
            </component>
         </Observation>
      </resource>
   </entry>
   <entry>
      <fullUrl value="urn:uuid:9c56948c-6a39-6609-1c01-4d197ea57a35"/>
      <resource>
         <Observation>
				<!--ionAnalysisFlourine-->
            <id value="9c56948c-6a39-6609-1c01-4d197ea57a35"/>
            <instantiatesReference>
					<!--ObservationDefinition/IonAnalysisFlourine-->
               <reference value="ObservationDefinition/fd17b5d6-9fe1-91c5-2d06-47cb5b295e72"/>
            </instantiatesReference>
            <status value="final"/>
            <code>
               <coding>
                  <system value="http://hl7.org/fhir/uv/pharm-quality/CodeSystem/cs-local-codes-drug-pq"/>
                  <code value="IonAnalysisFlourine"/>
                  <display value="Ion Analysis Flourine (%)"/>
               </coding>
               <text value="Ion Analysis Flourine (%)"/>
            </code>
            <subject>
					<!--Substance/substance-dxpq-ex1-unlinked-->
               <reference value="Substance/fc078762-81c5-5656-9744-13c7ad1e595b"/>
            </subject>
            <effectiveDateTime value="2023-01-01T12:00:00Z"/>
            <performer>
					<!--Organization/378fbe5f-5926-3a5c-4c64-5428df877b08-->
               <reference value="Organization/378fbe5f-5926-3a5c-4c64-5428df877b08"/>
            </performer>
            <valueQuantity>
               <value value="4.125"/>
            </valueQuantity>
            <component>
               <code>
                  <coding>
                     <system value="http://hl7.org/fhir/uv/pharm-quality/CodeSystem/cs-local-codes-drug-pq"/>
                     <code value="IonAnalysisFlourineMassAccuracy"/>
                     <display value="Ion Analysis Flourine - Mass Accuracy"/>
                  </coding>
               </code>
               <valueQuantity>
                  <value value="0.002">
                     <extension url="http://hl7.org/fhir/StructureDefinition/rendered-value">
                        <valueString value="+/- 0.002"/>
                     </extension>
                  </value>
               </valueQuantity>
            </component>
         </Observation>
      </resource>
   </entry>
   <entry>
      <fullUrl value="urn:uuid:fd27b5d6-9fe2-91c2-2d06-47cb5b295e72"/>
      <resource>
         <Observation>
            	<!--nmr3-->
            <id value="fd27b5d6-9fe2-91c2-2d06-47cb5b295e72"/>
            <instantiatesReference>
					<!--ObservationDefinition/NMR-->
               <reference value="ObservationDefinition/fd17b5d6-9fe2-91c2-2d06-47cb5b295e72"/>
            </instantiatesReference>
            <status value="final"/>
            <code>
               <coding>
                  <system value="http://hl7.org/fhir/uv/pharm-quality/CodeSystem/cs-local-codes-drug-pq"/>
                  <code value="NMR"/>
                  <display value="nmr"/>
               </coding>
               <text value="NMR"/>
            </code>
            <subject>
            		<!--Substance/substance-dxpq-ex1-unlinked-->
               <reference value="Substance/fc078762-81c5-5656-9744-13c7ad1e595b"/>
            </subject>
            <effectiveDateTime value="2023-01-01T12:00:00Z"/>
            <performer>
					<!--Organization/378fbe5f-5926-3a5c-4c64-5428df877b08-->
               <reference value="Organization/378fbe5f-5926-3a5c-4c64-5428df877b08"/>
            </performer>
            <!-- 3 components, position, H, C -->
            <component>
               <code>
                  <coding>
                     <system value="http://hl7.org/fhir/uv/pharm-quality/CodeSystem/cs-local-codes-drug-pq"/>
                     <code value="NMR-H"/>
                     <display value="NMR-H"/>
                  </coding>
               </code>
               <valueString value="2.903 (dd, J=13.5, 9.6 Hz, 1H), 3.174 (dd, J=13.5, 4.4 Hz, 1H)"/>
            </component>
            <component>
               <code>
                  <coding>
                     <system value="http://hl7.org/fhir/uv/pharm-quality/CodeSystem/cs-local-codes-drug-pq"/>
                     <code value="NMR-C"/>
                     <display value="NMR-C"/>
                  </coding>
               </code>
               <valueString value="40.35"/>
            </component>
            <component> <!-- are expected to have a component that says number of samples -->
               <code>
                  <coding>
                     <system value="http://hl7.org/fhir/uv/pharm-quality/CodeSystem/cs-local-codes-drug-pq"/>
                     <code value="POS"/>
                     <display value="Structure Position"/>
                  </coding>
               </code>
               <valueString value="3"/>
            </component>
         </Observation>
      </resource>
   </entry>
   <entry>
      <fullUrl value="urn:uuid:fd27b5d6-9fe2-91c2-2d06-47cb5b295e73"/>
      <resource>
         <Observation>
				<!--nmr4-->
            <id value="fd27b5d6-9fe2-91c2-2d06-47cb5b295e73"/>
            <instantiatesReference>
					<!--ObservationDefinition/NMR-->
               <reference value="ObservationDefinition/fd17b5d6-9fe2-91c2-2d06-47cb5b295e72"/>
            </instantiatesReference>
            <status value="final"/>
            <code>
               <coding>
                  <system value="http://hl7.org/fhir/uv/pharm-quality/CodeSystem/cs-local-codes-drug-pq"/>
                  <code value="NMR"/>
                  <display value="nmr"/>
               </coding>
               <text value="NMR"/>
            </code>
            <subject>
					<!--Substance/substance-dxpq-ex1-unlinked-->
               <reference value="Substance/fc078762-81c5-5656-9744-13c7ad1e595b"/>
            </subject>
            <effectiveDateTime value="2023-01-01T12:00:00Z"/>
            <performer>
					<!--Organization/378fbe5f-5926-3a5c-4c64-5428df877b08-->
               <reference value="Organization/378fbe5f-5926-3a5c-4c64-5428df877b08"/>
            </performer>
            <component>
               <code>
                  <coding>
                     <system value="http://hl7.org/fhir/uv/pharm-quality/CodeSystem/cs-local-codes-drug-pq"/>
                     <code value="NMR-H"/>
                     <display value="NMR-H"/>
                  </coding>
               </code>
               <valueString value="4.558 (ddd, J=9.6, 8.0, 4.4 Hz, 1H)"/>
            </component>
            <component>
               <code>
                  <coding>
                     <system value="http://hl7.org/fhir/uv/pharm-quality/CodeSystem/cs-local-codes-drug-pq"/>
                     <code value="NMR-C"/>
                     <display value="NMR-C"/>
                  </coding>
               </code>
               <valueString value="52.10"/>
            </component>
            <component><!-- are expected to have a component that says number of samples -->
               <code>
                  <coding>
                     <system value="http://hl7.org/fhir/uv/pharm-quality/CodeSystem/cs-local-codes-drug-pq"/>
                     <code value="POS"/>
                     <display value="Structure Position"/>
                  </coding>
               </code>
               <valueString value="4"/>
            </component>
         </Observation>
      </resource>
   </entry>
   <entry>
      <fullUrl value="urn:uuid:fd27b5d6-9fe2-91c2-2d06-47cb5b295e74"/>
      <resource>
         <Observation>
				<!--nmr5-->
            <id value="fd27b5d6-9fe2-91c2-2d06-47cb5b295e74"/>
            <instantiatesReference>
					<!--ObservationDefinition/NMR-->
               <reference value="ObservationDefinition/fd17b5d6-9fe2-91c2-2d06-47cb5b295e72"/>
            </instantiatesReference>
            <status value="final"/>
            <code>
               <coding>
                  <system value="http://hl7.org/fhir/uv/pharm-quality/CodeSystem/cs-local-codes-drug-pq"/>
                  <code value="NMR"/>
                  <display value="nmr"/>
               </coding>
               <text value="NMR"/>
            </code>
            <subject>
					<!--Substance/substance-dxpq-ex1-unlinked-->
               <reference value="Substance/fc078762-81c5-5656-9744-13c7ad1e595b"/>
            </subject>
            <effectiveDateTime value="2023-01-01T12:00:00Z"/>
            <performer>
					<!--Organization/378fbe5f-5926-3a5c-4c64-5428df877b08-->
               <reference value="Organization/378fbe5f-5926-3a5c-4c64-5428df877b08"/>
            </performer>
            <component>
               <code>
                  <coding>
                     <system value="http://hl7.org/fhir/uv/pharm-quality/CodeSystem/cs-local-codes-drug-pq"/>
                     <code value="NMR-H"/>
                     <display value="NMR-H"/>
                  </coding>
               </code>
               <valueString value="8.319 (d, J=8.0 Hz, 1H)"/>
            </component>
            <component>
               <code>
                  <coding>
                     <system value="http://hl7.org/fhir/uv/pharm-quality/CodeSystem/cs-local-codes-drug-pq"/>
                     <code value="NMR-C"/>
                     <display value="NMR-C"/>
                  </coding>
               </code>
               <valueString>
                  <extension url="http://hl7.org/fhir/StructureDefinition/data-absent-reason">
                     <valueCode value="unsupported"/>
                  </extension>
               </valueString>
               <!-- odd that this has no value, in the original -->
            </component>
            <component><!-- are expected to have a component that says number of samples -->
               <code>
                  <coding>
                     <system value="http://hl7.org/fhir/uv/pharm-quality/CodeSystem/cs-local-codes-drug-pq"/>
                     <code value="POS"/>
                     <display value="Structure Position"/>
                  </coding>
               </code>
               <valueString value="5"/>
            </component>
         </Observation>
      </resource>
   </entry>
   <entry>
      <fullUrl value="urn:uuid:fd27b5d6-9fe2-91c2-2d16-47cb5b295e74"/>
      <resource>
         <Observation>
				<!--nmr6-->
            <id value="fd27b5d6-9fe2-91c2-2d16-47cb5b295e74"/>
            <instantiatesReference>
					<!--ObservationDefinition/NMR-->
               <reference value="ObservationDefinition/fd17b5d6-9fe2-91c2-2d06-47cb5b295e72"/>
            </instantiatesReference>
            <status value="final"/>
            <code>
               <coding>
                  <system value="http://hl7.org/fhir/uv/pharm-quality/CodeSystem/cs-local-codes-drug-pq"/>
                  <code value="NMR"/>
                  <display value="nmr"/>
               </coding>
               <text value="NMR"/>
            </code>
            <subject>
					<!--Substance/substance-dxpq-ex1-unlinked-->
               <reference value="Substance/fc078762-81c5-5656-9744-13c7ad1e595b"/>
            </subject>
            <effectiveDateTime value="2023-01-01T12:00:00Z"/>
            <performer>
					<!--Organization/378fbe5f-5926-3a5c-4c64-5428df877b08-->
               <reference value="Organization/378fbe5f-5926-3a5c-4c64-5428df877b08"/>
            </performer>
            <component>
               <code>
                  <coding>
                     <system value="http://hl7.org/fhir/uv/pharm-quality/CodeSystem/cs-local-codes-drug-pq"/>
                     <code value="NMR-H"/>
                     <display value="NMR-H"/>
                  </coding>
               </code>
               <valueString>
                  <extension url="http://hl7.org/fhir/StructureDefinition/data-absent-reason">
                     <valueCode value="unsupported"/>
                  </extension>
               </valueString>
               <!-- odd that this has no value, in the original -->
            </component>
            <component>
               <code>
                  <coding>
                     <system value="http://hl7.org/fhir/uv/pharm-quality/CodeSystem/cs-local-codes-drug-pq"/>
                     <code value="NMR-C"/>
                     <display value="NMR-C"/>
                  </coding>
               </code>
               <valueString value="169.72"/>
            </component>
            <component><!-- are expected to have a component that says number of samples -->
               <code>
                  <coding>
                     <system value="http://hl7.org/fhir/uv/pharm-quality/CodeSystem/cs-local-codes-drug-pq"/>
                     <code value="POS"/>
                     <display value="Structure Position"/>
                  </coding>
               </code>
               <valueString value="6"/>
            </component>
         </Observation>
      </resource>
   </entry>
   <entry>
      <fullUrl value="urn:uuid:fd27b5d6-9fe2-91c2-2d26-47cb5b295e74"/>
      <resource>
         <Observation>
				<!--nmr8-->
            <id value="fd27b5d6-9fe2-91c2-2d26-47cb5b295e74"/>
            <instantiatesReference>
					<!--ObservationDefinition/NMR-->
               <reference value="ObservationDefinition/fd17b5d6-9fe2-91c2-2d06-47cb5b295e72"/>
            </instantiatesReference>
            <status value="final"/>
            <code>
               <coding>
                  <system value="http://hl7.org/fhir/uv/pharm-quality/CodeSystem/cs-local-codes-drug-pq"/>
                  <code value="NMR"/>
                  <display value="nmr"/>
               </coding>
               <text value="NMR"/>
            </code>
            <subject>
					<!--Substance/substance-dxpq-ex1-unlinked-->
               <reference value="Substance/fc078762-81c5-5656-9744-13c7ad1e595b"/>
            </subject>
            <effectiveDateTime value="2023-01-01T12:00:00Z"/>
            <performer>
					<!--Organization/378fbe5f-5926-3a5c-4c64-5428df877b08-->
               <reference value="Organization/378fbe5f-5926-3a5c-4c64-5428df877b08"/>
            </performer>
            <component>
               <code>
                  <coding>
                     <system value="http://hl7.org/fhir/uv/pharm-quality/CodeSystem/cs-local-codes-drug-pq"/>
                     <code value="NMR-H"/>
                     <display value="NMR-H"/>
                  </coding>
               </code>
               <valueString value="3.241 (m, 2H)"/>
            </component>
            <component>
               <code>
                  <coding>
                     <system value="http://hl7.org/fhir/uv/pharm-quality/CodeSystem/cs-local-codes-drug-pq"/>
                     <code value="NMR-C"/>
                     <display value="NMR-C"/>
                  </coding>
               </code>
               <valueString value="39.14"/>
            </component>
            <component><!-- are expected to have a component that says number of samples -->
               <code>
                  <coding>
                     <system value="http://hl7.org/fhir/uv/pharm-quality/CodeSystem/cs-local-codes-drug-pq"/>
                     <code value="POS"/>
                     <display value="Structure Position"/>
                  </coding>
               </code>
               <valueString value="8"/>
            </component>
         </Observation>
      </resource>
   </entry>
   <entry>
      <fullUrl value="urn:uuid:fd27b5d6-9fe2-91c2-2d36-47cb5b295e74"/>
      <resource>
         <Observation>
				<!--nmr9-->
            <id value="fd27b5d6-9fe2-91c2-2d36-47cb5b295e74"/>
            <instantiatesReference>
					<!--ObservationDefinition/NMR-->
               <reference value="ObservationDefinition/fd17b5d6-9fe2-91c2-2d06-47cb5b295e72"/>
            </instantiatesReference>
            <status value="final"/>
            <code>
               <coding>
                  <system value="http://hl7.org/fhir/uv/pharm-quality/CodeSystem/cs-local-codes-drug-pq"/>
                  <code value="NMR"/>
                  <display value="nmr"/>
               </coding>
               <text value="NMR"/>
            </code>
            <subject>
					<!--Substance/substance-dxpq-ex1-unlinked-->
               <reference value="Substance/fc078762-81c5-5656-9744-13c7ad1e595b"/>
            </subject>
            <effectiveDateTime value="2023-01-01T12:00:00Z"/>
            <performer>
					<!--Organization/378fbe5f-5926-3a5c-4c64-5428df877b08-->
               <reference value="Organization/378fbe5f-5926-3a5c-4c64-5428df877b08"/>
            </performer>
            <component>
               <code>
                  <coding>
                     <system value="http://hl7.org/fhir/uv/pharm-quality/CodeSystem/cs-local-codes-drug-pq"/>
                     <code value="NMR-H"/>
                     <display value="NMR-H"/>
                  </coding>
               </code>
               <valueString value="3.872 (bs, 1H)"/>
            </component>
            <component>
               <code>
                  <coding>
                     <system value="http://hl7.org/fhir/uv/pharm-quality/CodeSystem/cs-local-codes-drug-pq"/>
                     <code value="NMR-C"/>
                     <display value="NMR-C"/>
                  </coding>
               </code>
               <valueString value="52.38"/>
            </component>
            <component><!-- are expected to have a component that says number of samples -->
               <code>
                  <coding>
                     <system value="http://hl7.org/fhir/uv/pharm-quality/CodeSystem/cs-local-codes-drug-pq"/>
                     <code value="POS"/>
                     <display value="Structure Position"/>
                  </coding>
               </code>
               <valueString value="9"/>
            </component>
         </Observation>
      </resource>
   </entry>
   <entry>
      <fullUrl value="urn:uuid:fd27b5d6-9fe2-91c2-2d46-47cb5b295e74"/>
      <resource>
         <Observation>
				<!--nmr10-->
            <id value="fd27b5d6-9fe2-91c2-2d46-47cb5b295e74"/>
            <instantiatesReference>
					<!--ObservationDefinition/NMR-->
               <reference value="ObservationDefinition/fd17b5d6-9fe2-91c2-2d06-47cb5b295e72"/>
            </instantiatesReference>
            <status value="final"/>
            <code>
               <coding>
                  <system value="http://hl7.org/fhir/uv/pharm-quality/CodeSystem/cs-local-codes-drug-pq"/>
                  <code value="NMR"/>
                  <display value="nmr"/>
               </coding>
               <text value="NMR"/>
            </code>
            <subject>
					<!--Substance/substance-dxpq-ex1-unlinked-->
               <reference value="Substance/fc078762-81c5-5656-9744-13c7ad1e595b"/>
            </subject>
            <effectiveDateTime value="2023-01-01T12:00:00Z"/>
            <performer>
					<!--Organization/378fbe5f-5926-3a5c-4c64-5428df877b08-->
               <reference value="Organization/378fbe5f-5926-3a5c-4c64-5428df877b08"/>
            </performer>
            <component>
               <code>
                  <coding>
                     <system value="http://hl7.org/fhir/uv/pharm-quality/CodeSystem/cs-local-codes-drug-pq"/>
                     <code value="NMR-H"/>
                     <display value="NMR-H"/>
                  </coding>
               </code>
               <valueString value="7.8 to 8.6 (broad signal, 2H)"/>
            </component>
            <component>
               <code>
                  <coding>
                     <system value="http://hl7.org/fhir/uv/pharm-quality/CodeSystem/cs-local-codes-drug-pq"/>
                     <code value="NMR-C"/>
                     <display value="NMR-C"/>
                  </coding>
               </code>
               <!--valueString value=""/-->
            </component>
            <component><!-- are expected to have a component that says number of samples -->
               <code>
                  <coding>
                     <system value="http://hl7.org/fhir/uv/pharm-quality/CodeSystem/cs-local-codes-drug-pq"/>
                     <code value="POS"/>
                     <display value="Structure Position"/>
                  </coding>
               </code>
               <valueString value="10"/>
            </component>
         </Observation>
      </resource>
   </entry>
   <entry>
      <fullUrl value="urn:uuid:57a9af63-315d-1585-a261-0e337b289390"/>
      <resource>
         <SubstanceDefinition>
                <!--substancedefinition-component-substance-dxpq-ex1-->
            <id value="57a9af63-315d-1585-a261-0e337b289390"/>
            <meta>
               <profile value="http://hl7.org/fhir/uv/pharm-quality/StructureDefinition/SubstanceDefinition-component-substance-drug-pq"/>
            </meta>
            <manufacturer>
                    <!--Organization/organization-dxpq-ex1-->
               <reference value="Organization/49d2f0c0-4b28-9271-8aaf-2996a8b9739c"/>
            </manufacturer>
            <name>
               <name value="Stelbatolol"/>
            </name>
         </SubstanceDefinition>
      </resource>
   </entry>
   <entry>
      <fullUrl value="urn:uuid:49d2f0c0-4b28-9271-8aaf-2996a8b9739c"/>
      <resource>
         <Organization>
                <!--id value="substance-manufacturer"/-->
                <!--organization-dxpq-ex1-->
            <id value="49d2f0c0-4b28-9271-8aaf-2996a8b9739c"/>
            <meta>
               <profile value="http://hl7.org/fhir/uv/pharm-quality/StructureDefinition/Organization-drug-pq"/>
            </meta>
            <identifier>
                    <!-- FDA establishment identifier -->
               <system value="urn:oid:2.16.840.1.113883.4.82"/>
               <value value="3003040516"/>
            </identifier>
            <name value="AAA Molybdenum Products, Inc."/>
            <contact>
               <address>
                  <line value="7233 W 116th Pl"/>
                  <line value="Ste C"/>
                  <city value="Broomfield"/>
                  <state value="Colorado"/>
                  <postalCode value="80020"/>
                  <country value="USA"/>
               </address>
            </contact>
         </Organization>
      </resource>
   </entry>
   <entry>
      <fullUrl value="urn:uuid:378fbe5f-5926-3a5c-4c64-5428df877b08"/>
      <resource>
         <Organization>
				<!--testing lab-->
				<!--378fbe5f-5926-3a5c-4c64-5428df877b08-->
            <id value="378fbe5f-5926-3a5c-4c64-5428df877b08"/>
            <name value="Testing Lab"/>
         </Organization>
      </resource>
   </entry>
   <entry>
      <fullUrl value="urn:uuid:fc078762-81c5-5656-9744-13c7ad1e595b"/>
      <resource>
         <Substance>
                <!--<id value="actual-batch-substance"/>-->
                <!--substance-dxpq-ex1-unlinked-->
            <id value="fc078762-81c5-5656-9744-13c7ad1e595b"/>
            <meta>
               <profile value="http://hl7.org/fhir/uv/pharm-quality/StructureDefinition/Substance-drug-pq"/>
            </meta>
            <extension url="http://hl7.org/fhir/StructureDefinition/medication-manufacturingBatch">
               <extension url="manufacturingDate">
                  <valueDateTime value="2019-09-07"/>
               </extension>
               <extension url="batchQuantity">
                  <valueQuantity>
                     <value value="5.1"/>
                     <unit value="kg"/>
                  </valueQuantity>
               </extension>
               <extension url="batchUtilization">
                  <valueCodeableConcept>
                     <coding>
                        <system value="http://ncicb.nci.nih.gov/xml/owl/EVS/Thesaurus.owl"/>
                        <code value="C133991"/>
                        <display value="Development"/>
                     </coding>
                  </valueCodeableConcept>
               </extension>
               <extension url="assignedManufacturer">
                  <valueReference>
                            <!--Organization/organization-dxpq-ex1-->
                     <reference value="Organization/49d2f0c0-4b28-9271-8aaf-2996a8b9739c"/>
                  </valueReference>
               </extension>
            </extension>
            <extension url="http://hl7.org/fhir/uv/pharm-quality/StructureDefinition/Extension-batch-release-date-pq">
               <valueDateTime value="2019-09-08"/>
            </extension>
            <extension url="http://hl7.org/fhir/uv/pharm-quality/StructureDefinition/Extension-batch-retest-date-pq">
               <valueDateTime value="2022-09-08"/>
            </extension>
            <extension url="http://hl7.org/fhir/uv/pharm-quality/StructureDefinition/Extension-actual-yield-pq">
               <valueQuantity>
                  <value value="4.8"/>
                  <unit value="kg"/>
               </valueQuantity>
            </extension>
            <identifier>
               <value value="SUB1Amgen"/>
            </identifier>
            <instance value="true"/>
            <code>
               <reference>
                        <!--SubstanceDefinition/substancedefinition-component-substance-dxpq-ex1-->
                  <reference value="SubstanceDefinition/57a9af63-315d-1585-a261-0e337b289390"/>
               </reference>
            </code>
         </Substance>
      </resource>
   </entry>
   <entry>
      <fullUrl value="urn:uuid:9c56948c-2b39-6609-1c01-4d197ea57a33"/>
      <resource>
         <Observation>
				<!--structure-->
            <id value="9c56948c-2b39-6609-1c01-4d197ea57a33"/>
            <instantiatesReference>
					<!--ObservationDefinition/Structure-->
               <reference value="ObservationDefinition/fd17b5d6-9ff1-91c5-2d06-47cb5b295e72"/>
            </instantiatesReference>
            <status value="final"/>
            <code>
               <coding>
                  <system value="http://hl7.org/fhir/uv/pharm-quality/CodeSystem/cs-local-codes-drug-pq"/>
                  <code value="Chemical Structure"/>
                  <display value="Chemical Structure"/>
               </coding>
               <text value="Chemical Structure"/>
            </code>
            <subject>
					<!--Substance/substance-dxpq-ex1-unlinked-->
               <reference value="Substance/fc078762-81c5-5656-9744-13c7ad1e595b"/>
            </subject>
            <effectiveDateTime value="2023-01-01T12:00:00Z"/>
            <performer>
					<!--Organization/378fbe5f-5926-3a5c-4c64-5428df877b08-->
               <reference value="Organization/378fbe5f-5926-3a5c-4c64-5428df877b08"/>
            </performer>
            <valueAttachment>
               <contentType value="image/png"/>
               <data value=""/>
            </valueAttachment>
         </Observation>
      </resource>
   </entry>
   <entry>
      <fullUrl value="urn:uuid:9c56948c-2b39-6609-1c01-4d197ea57a34"/>
      <resource>
         <Observation>
				<!--fig11xray-->
            <id value="9c56948c-2b39-6609-1c01-4d197ea57a34"/>
            <instantiatesReference>
					<!--ObservationDefinition/Diffractogram-->
               <reference value="ObservationDefinition/fd17b5d6-9ff1-91c5-2d06-47cb5b295e73"/>
            </instantiatesReference>
            <status value="final"/>
            <code>
               <coding>
                  <system value="http://hl7.org/fhir/uv/pharm-quality/CodeSystem/cs-local-codes-drug-pq"/>
                  <code value="X-Ray Powder Diffractogram"/>
                  <display value="X-Ray Powder Diffractogram"/>
               </coding>
               <text value="X-Ray Powder Diffractogram"/>
            </code>
            <subject>
					<!--Substance/substance-dxpq-ex1-unlinked-->
               <reference value="Substance/fc078762-81c5-5656-9744-13c7ad1e595b"/>
            </subject>
            <effectiveDateTime value="2023-01-01T12:00:00Z"/>
            <performer>
					<!--Organization/378fbe5f-5926-3a5c-4c64-5428df877b08-->
               <reference value="Organization/378fbe5f-5926-3a5c-4c64-5428df877b08"/>
            </performer>
            <valueAttachment>
               <contentType value="image/png"/>
               <data value=""/>
            </valueAttachment>
         </Observation>
      </resource>
   </entry>
   <entry>
      <fullUrl value="urn:uuid:9c56948c-2b39-6619-1c01-4d197ea57a34"/>
      <resource>
         <Observation>
				<!--fig10molecularstructure-->
            <id value="9c56948c-2b39-6619-1c01-4d197ea57a34"/>
            <instantiatesReference>
					<!--ObservationDefinition/MolecularStructure-->
               <reference value="ObservationDefinition/fd17b5d6-9ff1-91c5-2d06-47cb5b295e74"/>
            </instantiatesReference>
            <status value="final"/>
            <code>
               <coding>
                  <system value="http://hl7.org/fhir/uv/pharm-quality/CodeSystem/cs-local-codes-drug-pq"/>
                  <code value="MolecularStructure"/>
                  <display value="Molecular Structure"/>
               </coding>
               <text value="MolecularStructure"/>
            </code>
            <subject>
					<!--Substance/substance-dxpq-ex1-unlinked-->
               <reference value="Substance/fc078762-81c5-5656-9744-13c7ad1e595b"/>
            </subject>
            <effectiveDateTime value="2023-01-01T12:00:00Z"/>
            <performer>
					<!--Organization/378fbe5f-5926-3a5c-4c64-5428df877b08-->
               <reference value="Organization/378fbe5f-5926-3a5c-4c64-5428df877b08"/>
            </performer>
            <valueAttachment>
               <contentType value="image/png"/>
               <data value=""/>
            </valueAttachment>
         </Observation>
      </resource>
   </entry>
   <entry>
      <fullUrl value="urn:uuid:9c56948c-2b39-6609-1c01-4d197ea57a35"/>
      <resource>
         <Observation>
				<!--fig8absorption-->
            <id value="9c56948c-2b39-6609-1c01-4d197ea57a35"/>
            <instantiatesReference>
					<!--ObservationDefinition/Absorption-->
               <reference value="ObservationDefinition/fd17b5d6-9ff1-91c5-2d06-47cb5b295e75"/>
            </instantiatesReference>
            <status value="final"/>
            <code>
               <coding>
                  <system value="http://hl7.org/fhir/uv/pharm-quality/CodeSystem/cs-local-codes-drug-pq"/>
                  <code value="Absorption"/>
                  <display value="Absorption"/>
               </coding>
               <text value="Absorption"/>
            </code>
            <subject>
					<!--Substance/substance-dxpq-ex1-unlinked-->
               <reference value="Substance/fc078762-81c5-5656-9744-13c7ad1e595b"/>
            </subject>
            <effectiveDateTime value="2023-01-01T12:00:00Z"/>
            <performer>
					<!--Organization/378fbe5f-5926-3a5c-4c64-5428df877b08-->
               <reference value="Organization/378fbe5f-5926-3a5c-4c64-5428df877b08"/>
            </performer>
            <valueAttachment>
               <contentType value="image/png"/>
               <data value=""/>
            </valueAttachment>
         </Observation>
      </resource>
   </entry>
</Bundle>
