<?xml version="1.0" encoding="UTF-8"?>
<Bundle xmlns="http://hl7.org/fhir">
   <id value="bundle-batch-formula-pq-ex1"/>
<!--   <id value="7a2809f8-d46b-4383-9cb7-93e4dca35314"/>-->
   <meta>
      <profile value="http://hl7.org/fhir/uv/pharm-quality/StructureDefinition/Bundle-batch-formula-pq"/>
   </meta>
   <type value="collection"/>
   <!-- MedicinalProductDefinition - the main resource in any product scenario -->
   <entry>
      <fullUrl value="urn:uuid:a0694a7a-aafa-4cbe-8135-c788a9a4d3d5"/>
      <resource>
            <!-- Section 1.1 - DP Identification -->
         <MedicinalProductDefinition>
            <id value="medicinalproductdefinition-drug-product-dxpq-ex1"/>
            <name>
               <productName value="Stalbatolol"/>
               <type>
                  <coding>
                     <system value="http://accumulus.org/fhir/code/productNameType"/>
                     <code value="1234"/>
                     <display value="Proprietary"/>
                  </coding>
               </type>
            </name>
         </MedicinalProductDefinition>
      </resource>
   </entry>
   <entry>
      <fullUrl value="urn:uuid:b89ed9d2-80f9-0cfb-70a1-5a6572e73a65"/>
      <resource>
         <Ingredient>
            <id value="ingredient1"/>
            <status value="active"/>
            <for>
               <reference value="MedicinalProductDefinition/medicinalproductdefinition-drug-product-dxpq-ex1"/>
            </for>
            <role>
               <coding>
                  <system value="https://spor.ema.europa.eu/v1/lists/100000072050"/>
                  <code value="100000072072"/>
                  <display value="Active"/>
               </coding>
            </role>
            <substance>
               <code>
                  <reference>
                     <reference value="SubstanceDefinition/substance1"/>
                     <display value="Stelbatolol"/>
                  </reference>
               </code>
               <strength>
                  <presentationRatio>
                     <numerator>
                        <value value="15.2"/>
                        <unit value="mg"/>
                     </numerator>
                     <denominator>
                        <value value="1"/>
                        <unit value="tablet"/>
                     </denominator>
                  </presentationRatio>
               </strength>
            </substance>
         </Ingredient>
      </resource>
   </entry>
   <entry>
      <fullUrl value="urn:uuid:b89fd9d2-80f9-0cfb-70a1-5a6572e73a65"/>
      <resource>
         <Ingredient>
            <id value="excipient1"/>
            <status value="active"/>
            <for>
               <reference value="MedicinalProductDefinition/medicinalproductdefinition-drug-product-dxpq-ex1"/>
            </for>
            <role>
               <coding>
                  <system value="https://spor.ema.europa.eu/v1/lists/100000072050"/>
                  <code value="100000072082"/>
                  <display value="Excipient"/>
               </coding>
            </role>
            <substance>
               <code>
                  <reference>
                     <display value="Mannitol"/>
                  </reference>
               </code>
               <strength>
                  <presentationRatio>
                     <numerator>
                        <value value="145.0"/>
                        <unit value="mg"/>
                     </numerator>
                     <denominator>
                        <value value="1"/>
                        <unit value="tablet"/>
                     </denominator>
                  </presentationRatio>
               </strength>
            </substance>
         </Ingredient>
      </resource>
   </entry>
   <entry>
      <fullUrl value="urn:uuid:b89ed9d2-81f9-0cfb-70a1-5a6572e73a65"/>
      <resource>
         <Ingredient>
            <id value="excipient2"/>
            <status value="active"/>
            <for>
               <reference value="MedicinalProductDefinition/medicinalproductdefinition-drug-product-dxpq-ex1"/>
            </for>
            <role>
               <coding>
                  <system value="https://spor.ema.europa.eu/v1/lists/100000072050"/>
                  <code value="100000072082"/>
                  <display value="Excipient"/>
               </coding>
            </role>
            <substance>
               <code>
                  <reference>
                     <display value="Maize starch"/>
                  </reference>
               </code>
               <strength>
                  <presentationRatio>
                     <numerator>
                        <value value="13.8"/>
                        <unit value="mg"/>
                     </numerator>
                     <denominator>
                        <value value="1"/>
                        <unit value="tablet"/>
                     </denominator>
                  </presentationRatio>
               </strength>
            </substance>
         </Ingredient>
      </resource>
   </entry>
   <entry>
      <fullUrl value="urn:uuid:b89ed9d2-80f9-0cfb-70a1-5a6572e73a66"/>
      <resource>
         <Ingredient>
            <id value="excipient3"/>
            <status value="active"/>
            <for>
               <reference value="MedicinalProductDefinition/medicinalproductdefinition-drug-product-dxpq-ex1"/>
            </for>
            <role>
               <coding>
                  <system value="https://spor.ema.europa.eu/v1/lists/100000072050"/>
                  <code value="100000072082"/>
                  <display value="Excipient"/>
               </coding>
            </role>
            <substance>
               <code>
                  <reference>
                     <display value="Calcium carboxymethylcellulose"/>
                  </reference>
               </code>
               <strength>
                  <presentationRatio>
                     <numerator>
                        <value value="4.0"/>
                        <unit value="mg"/>
                     </numerator>
                     <denominator>
                        <value value="1"/>
                        <unit value="tablet"/>
                     </denominator>
                  </presentationRatio>
               </strength>
            </substance>
         </Ingredient>
      </resource>
   </entry>
   <entry>
      <fullUrl value="urn:uuid:b89ed9d2-80f9-0cfb-70b1-5a6572e73a66"/>
      <resource>
         <Ingredient>
            <id value="excipient4"/>
            <status value="active"/>
            <for>
               <reference value="MedicinalProductDefinition/medicinalproductdefinition-drug-product-dxpq-ex1"/>
            </for>
            <role>
               <coding>
                  <system value="https://spor.ema.europa.eu/v1/lists/100000072050"/>
                  <code value="100000072082"/>
                  <display value="Excipient"/>
               </coding>
            </role>
            <substance>
               <code>
                  <reference>
                     <display value="Magnesium stearate"/>
                  </reference>
               </code>
               <strength>
                  <presentationRatio>
                     <numerator>
                        <value value="2.0"/>
                        <unit value="mg"/>
                     </numerator>
                     <denominator>
                        <value value="1"/>
                        <unit value="tablet"/>
                     </denominator>
                  </presentationRatio>
               </strength>
            </substance>
         </Ingredient>
      </resource>
   </entry>
   <entry>
      <fullUrl value="urn:uuid:4cf2cbba-33e6-1124-9bf2-1c6756380474"/>
      <resource>
         <SubstanceDefinition>
            <id value="substance1"/>
            <name>
               <name value="Stelbatolol"/>
            </name>
         </SubstanceDefinition>
      </resource>
   </entry>
   <!-- Section 7 - Batch Formula -->
   <entry>
      <fullUrl value="urn:uuid:bf17176f-9779-180b-5c59-e58cddc11070"/>
      <resource>
         <Medication>
            <id value="medication-batch-formula-unlinked"/>
            <contained>
               <Substance>
                  <id value="substanceIngredient-1"/>
                  <instance value="false"/>
                  <code>
                     <reference>
                        <reference value="SubstanceDefinition/substance1"/>
                     </reference>
                  </code>
               </Substance>
            </contained>
            <contained>
               <Substance>
                  <id value="substanceExcipient-1"/>
                  <instance value="false"/>
                  <code>
                     <reference>
                        <display value="Mannitol"/>
                     </reference>
                  </code>
               </Substance>
            </contained>
            <contained>
               <Substance>
                  <id value="substanceExcipient-2"/>
                  <instance value="false"/>
                  <code>
                     <reference>
                        <display value="Maize starch"/>
                     </reference>
                  </code>
               </Substance>
            </contained>
            <contained>
               <Substance>
                  <id value="substanceExcipient-3"/>
                  <instance value="false"/>
                  <code>
                     <reference>
                        <display value="Calcium carboxymethylcellulose"/>
                     </reference>
                  </code>
               </Substance>
            </contained>
            <contained>
               <Substance>
                  <id value="substanceExcipient-4"/>
                  <instance value="false"/>
                  <code>
                     <reference>
                        <display value="Magnesium stearate"/>
                     </reference>
                  </code>
               </Substance>
            </contained>
            <code> <!-- some other cases link via plandef and activity.product -->
               <extension url="http://hl7.org/fhir/uv/pharm-quality/StructureDefinition/Extension-medication-definition-dxpq">
                  <valueReference>
                     <reference value="MedicinalProductDefinition/medicinalproductdefinition-drug-product-dxpq-ex1"/>
                  </valueReference>
               </extension>
               <text value="Large Batch of Stelbatolol"/>
            </code>
            <ingredient>
               <item>
                  <reference>
                     <reference value="#substanceIngredient-1"/>
                     <display value="Stelbatolol"/>
                  </reference>
               </item>
               <isActive value="true"/>
               <strengthQuantity>
                  <value value="10.98"/>
                  <unit value="kg"/>
               </strengthQuantity>
            </ingredient>
            <ingredient>
               <item>
                  <reference>
                     <reference value="#substanceExcipient-1"/>
                     <display value="Mannitol"/>
                  </reference>
               </item>
               <isActive value="false"/>
               <strengthQuantity>
                  <value value="104.72"/>
                  <unit value="kg"/>
               </strengthQuantity>
            </ingredient>
            <ingredient>
               <item>
                  <reference>
                     <reference value="#substanceExcipient-2"/>
                     <display value="Maize starch"/>
                  </reference>
               </item>
               <isActive value="false"/>
               <strengthQuantity>
                  <value value="9.98"/>
                  <unit value="kg"/>
               </strengthQuantity>
            </ingredient>
            <ingredient>
               <item>
                  <reference>
                     <reference value="#substanceExcipient-3"/>
                     <display value="Calcium carboxymethylcellulose"/>
                  </reference>
               </item>
               <isActive value="false"/>
               <strengthQuantity>
                  <value value="2.90"/>
                  <unit value="kg"/>
               </strengthQuantity>
            </ingredient>
            <ingredient>
               <item>
                  <reference>
                     <reference value="#substanceExcipient-4"/>
                     <display value="Magnesium stearate"/>
                  </reference>
               </item>
               <isActive value="false"/>
               <strengthQuantity>
                  <value value="1.44"/>
                  <unit value="kg"/>
               </strengthQuantity>
            </ingredient>
            <batch>
               <extension url="http://hl7.org/fhir/StructureDefinition/medication-manufacturingBatch">
                  <extension url="batchQuantity">
                     <valueQuantity>
                        <value value="722000"/>
                        <unit value="tablets"/>
                     </valueQuantity>
                  </extension>
               </extension>
               <extension url="http://hl7.org/fhir/StructureDefinition/medication-manufacturingBatch">
                  <extension url="batchQuantity">
                     <valueQuantity>
                        <value value="130"/>
                        <unit value="kg"/>
                     </valueQuantity>
                  </extension>
               </extension>
            </batch>
         </Medication>
      </resource>
   </entry>
   <entry>
      <fullUrl value="urn:uuid:bf17176f-9779-180b-5c59-e58cddc11071"/>
      <resource>
         <Medication>
            <id value="medication-batch-formula-2-unlinked"/>
            <contained>
               <Substance>
                  <id value="substanceIngredient-1"/>
                  <instance value="false"/>
                  <code>
                     <reference>
                        <reference value="SubstanceDefinition/substance1"/>
                     </reference>
                  </code>
               </Substance>
            </contained>
            <contained>
               <Substance>
                  <id value="substanceExcipient-1"/>
                  <instance value="false"/>
                  <code>
                     <reference>
                        <display value="Mannitol"/>
                     </reference>
                  </code>
               </Substance>
            </contained>
            <contained>
               <Substance>
                  <id value="substanceExcipient-2"/>
                  <instance value="false"/>
                  <code>
                     <reference>
                        <display value="Maize starch"/>
                     </reference>
                  </code>
               </Substance>
            </contained>
            <contained>
               <Substance>
                  <id value="substanceExcipient-3"/>
                  <instance value="false"/>
                  <code>
                     <reference>
                        <display value="Calcium carboxymethylcellulose"/>
                     </reference>
                  </code>
               </Substance>
            </contained>
            <contained>
               <Substance>
                  <id value="substanceExcipient-4"/>
                  <instance value="false"/>
                  <code>
                     <reference>
                        <display value="Magnesium stearate"/>
                     </reference>
                  </code>
               </Substance>
            </contained>
            <code> <!-- some other cases link via plandef and activity.product -->
               <extension url="http://hl7.org/fhir/uv/pharm-quality/StructureDefinition/Extension-medication-definition-dxpq">
                  <valueReference>
                     <reference value="MedicinalProductDefinition/medicinalproductdefinition-drug-product-dxpq-ex1"/>
                  </valueReference>
               </extension>
               <text value="Small Batch of Stelbatolol"/>
            </code>
            <ingredient>
               <item>
                  <reference>
                     <reference value="#substanceIngredient-1"/>
                     <display value="Stelbatolol"/>
                  </reference>
               </item>
               <isActive value="true"/>
               <strengthQuantity>
                  <value value="5.98"/>
                  <unit value="kg"/>
               </strengthQuantity>
            </ingredient>
            <ingredient>
               <item>
                  <reference>
                     <reference value="#substanceExcipient-1"/>
                     <display value="Mannitol"/>
                  </reference>
               </item>
               <isActive value="false"/>
               <strengthQuantity>
                  <value value="52.36"/>
                  <unit value="kg"/>
               </strengthQuantity>
            </ingredient>
            <ingredient>
               <item>
                  <reference>
                     <reference value="#substanceExcipient-2"/>
                     <display value="Maize starch"/>
                  </reference>
               </item>
               <isActive value="false"/>
               <strengthQuantity>
                  <value value="5.99"/>
                  <unit value="kg"/>
               </strengthQuantity>
            </ingredient>
            <ingredient>
               <item>
                  <reference>
                     <reference value="#substanceExcipient-3"/>
                     <display value="Calcium carboxymethylcellulose"/>
                  </reference>
               </item>
               <isActive value="false"/>
               <strengthQuantity>
                  <value value="1.45"/>
                  <unit value="kg"/>
               </strengthQuantity>
            </ingredient>
            <ingredient>
               <item>
                  <reference>
                     <reference value="#substanceExcipient-4"/>
                     <display value="Magnesium stearate"/>
                  </reference>
               </item>
               <isActive value="false"/>
               <strengthQuantity>
                  <value value="0.72"/>
                  <unit value="kg"/>
               </strengthQuantity>
            </ingredient>
            <batch>
               <extension url="http://hl7.org/fhir/StructureDefinition/medication-manufacturingBatch">
                  <extension url="batchQuantity">
                     <valueQuantity>
                        <value value="371000"/>
                        <unit value="tablets"/>
                     </valueQuantity>
                  </extension>
               </extension>
               <extension url="http://hl7.org/fhir/StructureDefinition/medication-manufacturingBatch">
                  <extension url="batchQuantity">
                     <valueQuantity>
                        <value value="65"/>
                        <unit value="kg"/>
                     </valueQuantity>
                  </extension>
               </extension>
            </batch>
         </Medication>
      </resource>
   </entry>
</Bundle>
