<?xml version="1.0" encoding="UTF-8"?>
<Bundle xmlns="http://hl7.org/fhir">
   <!-- Product Batch Analysis -->
   <!-- Based on file: Accumulus FHIR Product Example - Batch Analysis, posted on 05-31-2023 -->
   <!-- For this example, changed <system value="http://unitsofmeasure.org"/> to <system value="http://dummy.unitsofmeasure.org"/>-->
   <!-- For this example, changed <system value="http://loinc.org"/> to <system value="http://dummy.loinc.org"/>-->
   <!-- For this example, changed "http://hl7.org/fhir/us/pq-cmc/CodeSystem/pqcmc-batch-utilization-terminology" to "http://temp.hl7.org/fhir/us/pq-cmc/CodeSystem/pqcmc-batch-utilization-terminology"/>-->
   <id value="bundle-batch-analysis-dxpq-ex1-prod"/>
   <!--   <id value="7a2809f8-d46b-4383-9cb7-93e4dca35314"/>-->
   <meta>
      <profile value="http://hl7.org/fhir/uv/dx-pq/StructureDefinition/Bundle-batch-analysis-dxpq"/>
      <!--      <profile value="http://accumulus.org/fhir/dx-cmc/batch-analysis"/>-->
   </meta>
   <type value="collection"/>
   <entry>
      <fullUrl value="https://www.example.org/PlanDefinition/specificationProtocol"/>
      <resource>
         <PlanDefinition>
            <id value="specificationProtocol"/>
            <meta>
               <profile
                  value="http://hl7.org/fhir/uv/dx-pq/StructureDefinition/PlanDefinition-drug-specification-dxpq"/>
               <!--               <profile value="https://build.fhir.org/ig/HL7/uv-dx-pq/StructureDefinition-PlanDefinition-drug-specification-dxpq.html"/>-->
            </meta>
            <title value="P.5.4 BATCH ANALYSIS"/>
            <status value="active"/>
            <subjectReference>
               <reference value="MedicinalProductDefinition/product"/>
            </subjectReference>
            <description value="Narrative description of analysis"/>
            <!-- new "tabular" style -->
            <action>
               <!-- this is then entire thing -->
               <title value="Batch Results for Drug Product"/>
               <code>
                  <text value="Overall set of actions"/>
               </code>
               <action>
                  <title value="Release"/>
                  <code>
                     <text value="Timing Group"/>
                  </code>
                  <timingTiming>
                     <code>
                        <text value="Release time"/>
                     </code>
                  </timingTiming>
                  <action>
                     <code>
                        <text value="Test"/>
                     </code>
                     <definitionCanonical value="ObservationDefinition/Description"/>
                  </action>
                  <action>
                     <code>
                        <text value="Test"/>
                     </code>
                     <definitionCanonical value="ObservationDefinition/Identification"/>
                  </action>
                  <action>
                     <code>
                        <text value="Test"/>
                     </code>
                     <definitionCanonical value="ObservationDefinition/Assay"/>
                  </action>
                  <action>
                     <code>
                        <text value="Test"/>
                     </code>
                     <definitionCanonical value="ObservationDefinition/Degradation"/>
                  </action>
                  <action>
                     <code>
                        <text value="Test"/>
                     </code>
                     <definitionCanonical value="ObservationDefinition/Dissolution"/>
                  </action>
                  <action>
                     <code>
                        <text value="Test"/>
                     </code>
                     <definitionCanonical value="ObservationDefinition/DissolutionQ80"/>
                  </action>
                  <action>
                     <code>
                        <text value="Test"/>
                     </code>
                     <definitionCanonical value="ObservationDefinition/Uniformity"/>
                  </action>
                  <action>
                     <code>
                        <text value="Test"/>
                     </code>
                     <definitionCanonical value="ObservationDefinition/Microbiological"/>
                  </action>
                  <action>
                     <code>
                        <text value="Test"/>
                     </code>
                     <definitionCanonical value="ObservationDefinition/Water"/>
                  </action>
               </action>
               <action>
                  <title value="End of shelf life"/>
                  <code>
                     <text value="Timing Group"/>
                  </code>
                  <timingTiming>
                     <code>
                        <text value="At end of shelf life"/>
                     </code>
                  </timingTiming>
                  <action>
                     <code>
                        <text value="Test"/>
                     </code>
                     <definitionCanonical value="ObservationDefinition/DescriptionEnd"/>
                  </action>
                  <action>
                     <code>
                        <text value="Test"/>
                     </code>
                     <definitionCanonical value="ObservationDefinition/IdentificationEnd"/>
                  </action>
                  <action>
                     <code>
                        <text value="Test"/>
                     </code>
                     <definitionCanonical value="ObservationDefinition/AssayEnd"/>
                  </action>
                  <action>
                     <code>
                        <text value="Test"/>
                     </code>
                     <definitionCanonical value="ObservationDefinition/DegradationEnd"/>
                  </action>
                  <action>
                     <code>
                        <text value="Test"/>
                     </code>
                     <definitionCanonical value="ObservationDefinition/DissolutionEnd"/>
                  </action>
                  <action>
                     <code>
                        <text value="Test"/>
                     </code>
                     <definitionCanonical value="ObservationDefinition/UniformityEnd"/>
                  </action>
                  <action>
                     <code>
                        <text value="Test"/>
                     </code>
                     <definitionCanonical value="ObservationDefinition/MicrobiologicalEnd"/>
                  </action>
                  <action>
                     <code>
                        <text value="Test"/>
                     </code>
                     <definitionCanonical value="ObservationDefinition/WaterEnd"/>
                  </action>
                  <!--                  <action>
                    </action>-->
               </action>
            </action>
         </PlanDefinition>
      </resource>
   </entry>
   <entry>
      <fullUrl value="https://www.example.org/ObservationDefinition/Description"/>
      <resource>
         <ObservationDefinition>
            <id value="Description"/>
            <name value="Description"/>
            <status value="active"/>
            <code>
               <coding>
                  <system value="http://dummy.loinc.org"/>
                  <code value="XXX"/>
                  <display value="Description"/>
               </coding>
               <text value="Description"/>
            </code>
            <method>
               <text value="Visual inspection"/>
            </method>
            <qualifiedValue>
               <extension
                  url="http://hl7.org/fhir/uv/dx-pq/StructureDefinition/Extension-qualified-value-text-dxpq">
                  <!--                  <extension url="http://accumulus.org/fhir/extension/qualifiedValueText">-->
                  <valueString value="An orange film-coated tablet, debossed with 175 on one side"/>
               </extension>
            </qualifiedValue>
         </ObservationDefinition>
      </resource>
   </entry>
   <entry>
      <fullUrl value="https://www.example.org/ObservationDefinition/DescriptionEnd"/>
      <resource>
         <ObservationDefinition>
            <id value="DescriptionEnd"/>
            <name value="Description"/>
            <status value="active"/>
            <code>
               <coding>
                  <system value="http://dummy.loinc.org"/>
                  <code value="XXX"/>
                  <display value="Description"/>
               </coding>
               <text value="Description"/>
            </code>
            <qualifiedValue>
               <extension
                  url="http://hl7.org/fhir/uv/dx-pq/StructureDefinition/Extension-qualified-value-text-dxpq">
                  <!-- <extension url="http://accumulus.org/fhir/extension/qualifiedValueText">-->
                  <valueString value="As for release"/>
               </extension>
            </qualifiedValue>
         </ObservationDefinition>
      </resource>
   </entry>
   <entry>
      <fullUrl value="https://www.example.org/ObservationDefinition/Identification"/>
      <resource>
         <ObservationDefinition>
            <id value="Identification"/>
            <name value="Identification"/>
            <status value="active"/>
            <code>
               <coding>
                  <system value="http://dummy.loinc.org"/>
                  <code value="XXX"/>
                  <display value="Identification"/>
               </coding>
               <text value="Identification"/>
            </code>
            <method>
               <text value="ID by UHPLC"/>
            </method>
            <qualifiedValue>
               <extension
                  url="http://hl7.org/fhir/uv/dx-pq/StructureDefinition/Extension-qualified-value-text-dxpq">
                  <!-- <extension url="http://accumulus.org/fhir/extension/qualifiedValueText">-->
                  <valueString
                     value="Consistent with the retention time and UV spectrum of the reference standard"
                  />
               </extension>
            </qualifiedValue>
         </ObservationDefinition>
      </resource>
   </entry>
   <entry>
      <fullUrl value="https://www.example.org/ObservationDefinition/IdentificationEnd"/>
      <resource>
         <ObservationDefinition>
            <id value="IdentificationEnd"/>
            <name value="Identification"/>
            <status value="active"/>
            <code>
               <coding>
                  <system value="http://dummy.loinc.org"/>
                  <code value="XXX"/>
                  <display value="Identification"/>
               </coding>
               <text value="Identification"/>
            </code>
            <qualifiedValue>
               <extension
                  url="http://hl7.org/fhir/uv/dx-pq/StructureDefinition/Extension-qualified-value-text-dxpq">
                  <!-- <extension url="http://accumulus.org/fhir/extension/qualifiedValueText">-->
                  <valueString value="As for release"/>
               </extension>
            </qualifiedValue>
         </ObservationDefinition>
      </resource>
   </entry>
   <entry>
      <fullUrl value="https://www.example.org/ObservationDefinition/Assay"/>
      <resource>
         <ObservationDefinition>
            <id value="Assay"/>
            <name value="Assay"/>
            <status value="active"/>
            <code>
               <coding>
                  <system value="http://dummy.loinc.org"/>
                  <code value="XXX"/>
                  <display value="Assay"/>
               </coding>
               <text value="Assay"/>
            </code>
            <method>
               <text value="Assay by UHPLC"/>
            </method>
            <qualifiedValue>
               <extension
                  url="http://hl7.org/fhir/uv/dx-pq/StructureDefinition/Extension-qualified-value-text-dxpq">
                  <!-- <extension url="http://accumulus.org/fhir/extension/qualifiedValueText">-->
                  <valueString value="95% to 105% of label claim"/>
               </extension>
            </qualifiedValue>
         </ObservationDefinition>
      </resource>
   </entry>
   <entry>
      <fullUrl value="https://www.example.org/ObservationDefinition/AssayEnd"/>
      <resource>
         <ObservationDefinition>
            <id value="AssayEnd"/>
            <name value="Assay"/>
            <status value="active"/>
            <code>
               <coding>
                  <system value="http://dummy.loinc.org"/>
                  <code value="XXX"/>
                  <display value="Assay"/>
               </coding>
               <text value="Assay"/>
            </code>
            <qualifiedValue>
               <extension
                  url="http://hl7.org/fhir/uv/dx-pq/StructureDefinition/Extension-qualified-value-text-dxpq">
                  <!-- <extension url="http://accumulus.org/fhir/extension/qualifiedValueText">-->
                  <valueString value="As for release"/>
               </extension>
            </qualifiedValue>
         </ObservationDefinition>
      </resource>
   </entry>
   <entry>
      <fullUrl value="https://www.example.org/ObservationDefinition/Degradation"/>
      <resource>
         <ObservationDefinition>
            <id value="Degradation"/>
            <name value="Degradation_Products"/>
            <!--            <name value="Degradation Products"/>-->
            <status value="active"/>
            <code>
               <coding>
                  <system value="http://dummy.loinc.org"/>
                  <code value="DGP"/>
                  <display value="Degradation Products"/>
               </coding>
            </code>
            <method>
               <text value="Degradation products by UHPLC"/>
            </method>
            <!--            <quantitativeDetails>
               <unit>
                  <coding>
                     <system value="http://dummy.unitsofmeasure.org"/>
                     <code value="%{w/w}"/>
                     <!-\- not sure this is a correct ucum code -\->
                  </coding>
               </unit>
               <customaryUnit>
                  <coding>
                     <code value="% w/w"/>
                  </coding>
               </customaryUnit>
            </quantitativeDetails>-->
            <qualifiedValue>
               <appliesTo>
                  <!-- could be a code -->
                  <text value="Impurity 1"/>
               </appliesTo>
               <range>
                  <high>
                     <value value="0.2"/>
                     <unit value="% w/w"/>
                  </high>
               </range>
            </qualifiedValue>
            <qualifiedValue>
               <appliesTo>
                  <text value="Impurity 2"/>
               </appliesTo>
               <range>
                  <high>
                     <value value="0.3"/>
                     <unit value="% w/w"/>
                  </high>
               </range>
            </qualifiedValue>
            <qualifiedValue>
               <appliesTo>
                  <text value="Impurity 3"/>
               </appliesTo>
               <range>
                  <high>
                     <value value="0.3"/>
                     <unit value="% w/w"/>
                  </high>
               </range>
            </qualifiedValue>
            <qualifiedValue>
               <appliesTo>
                  <text value="Individual unspecified degradation products"/>
               </appliesTo>
               <range>
                  <high>
                     <value value="0.2"/>
                     <unit value="% w/w"/>
                  </high>
               </range>
            </qualifiedValue>
            <qualifiedValue>
               <appliesTo>
                  <text value="Total degradation products"/>
               </appliesTo>
               <range>
                  <high>
                     <value value="1.4"/>
                     <unit value="% w/w"/>
                  </high>
               </range>
            </qualifiedValue>
            <component>
               <!-- are expected to have a component that says what impurity this one is -->
               <code>
                  <coding>
                     <system value="http://dummy.loinc.org"/>
                     <code value="IMP"/>
                     <display value="Impurity"/>
                  </coding>
               </code>
            </component>
         </ObservationDefinition>
      </resource>
   </entry>
   <entry>
      <fullUrl value="https://www.example.org/ObservationDefinition/DegradationEnd"/>
      <resource>
         <ObservationDefinition>
            <id value="DegradationEnd"/>
            <name value="Degradation_Products"/>
            <!--            <name value="Degradation Products"/>-->
            <status value="active"/>
            <code>
               <coding>
                  <system value="http://dummy.loinc.org"/>
                  <code value="DGP"/>
                  <display value="Degradation Products"/>
               </coding>
            </code>
            <!--            <quantitativeDetails>
               <unit>
                  <coding>
                     <system value="http://dummy.unitsofmeasure.org"/>
                     <code value="%{w/w}"/>
                     <!-\- not sure this is a correct ucum code -\->
                  </coding>
               </unit>
               <customaryUnit>
                  <coding>
                     <code value="% w/w"/>
                  </coding>
               </customaryUnit>
            </quantitativeDetails>-->
            <qualifiedValue>
               <appliesTo>
                  <!-- could be a code -->
                  <text value="Impurity 1"/>
               </appliesTo>
               <range>
                  <high>
                     <value value="0.8"/>
                     <unit value="% w/w"/>
                  </high>
               </range>
            </qualifiedValue>
            <qualifiedValue>
               <appliesTo>
                  <text value="Impurity 2"/>
               </appliesTo>
               <range>
                  <high>
                     <value value="0.4"/>
                     <unit value="% w/w"/>
                  </high>
               </range>
            </qualifiedValue>
            <qualifiedValue>
               <appliesTo>
                  <text value="Impurity 3"/>
               </appliesTo>
               <range>
                  <high>
                     <value value="0.4"/>
                     <unit value="% w/w"/>
                  </high>
               </range>
            </qualifiedValue>
            <qualifiedValue>
               <appliesTo>
                  <text value="Individual unspecified degradation products"/>
               </appliesTo>
               <range>
                  <high>
                     <value value="2.3"/>
                     <unit value="% w/w"/>
                  </high>
               </range>
            </qualifiedValue>
            <qualifiedValue>
               <appliesTo>
                  <text value="Total degradation products"/>
               </appliesTo>
               <range>
                  <high>
                     <value value="2.3"/>
                     <unit value="% w/w"/>
                  </high>
               </range>
            </qualifiedValue>
            <component>
               <!-- are expected to have a component that says what impurity this one is -->
               <code>
                  <coding>
                     <system value="http://dummy.loinc.org"/>
                     <code value="IMP"/>
                     <display value="Impurity"/>
                  </coding>
               </code>
            </component>
         </ObservationDefinition>
      </resource>
   </entry>
   <entry>
      <fullUrl value="https://www.example.org/ObservationDefinition/Dissolution"/>
      <resource>
         <ObservationDefinition>
            <id value="Dissolution"/>
            <name value="Dissolution"/>
            <status value="active"/>
            <code>
               <coding>
                  <system value="http://dummy.loinc.org"/>
                  <code value="ZZZ"/>
                  <display value="Dissolution"/>
               </coding>
               <text value="Dissolution"/>
            </code>
            <method>
               <text value="Apparatus 2 (paddles), UV measurement"/>
            </method>
            <qualifiedValue>
               <extension
                  url="http://hl7.org/fhir/uv/dx-pq/StructureDefinition/Extension-qualified-value-text-dxpq">
                  <!-- <extension url="http://accumulus.org/fhir/extension/qualifiedValueText">-->
                  <valueString
                     value="Shall comply with the requirements of the harmonised USP/JP/Ph"/>
               </extension>
            </qualifiedValue>
         </ObservationDefinition>
      </resource>
   </entry>
   <entry>
      <fullUrl value="https://www.example.org/ObservationDefinition/DissolutionQ80"/>
      <resource>
         <ObservationDefinition>
            <id value="DissolutionQ80"/>
            <name value="Dissolution_(Q)"/>
            <!--            <name value="Dissolution (Q)"/>-->
            <status value="active"/>
            <code>
               <coding>
                  <system value="http://dummy.loinc.org"/>
                  <code value="ZZZX"/>
                  <display value="DissolutionQuantity"/>
               </coding>
               <!--text value="Dissolution (Q)"/-->
            </code>
            <method>
               <text value="Apparatus 2 (paddles), UV measurement"/>
            </method>
            <qualifiedValue>
               <condition value="at 30 minutes"/>
               <range>
                  <low>
                     <value value="80"/>
                     <unit value="%"/>
                  </low>
               </range>
            </qualifiedValue>
         </ObservationDefinition>
      </resource>
   </entry>
   <entry>
      <fullUrl value="https://www.example.org/ObservationDefinition/DissolutionEnd"/>
      <resource>
         <ObservationDefinition>
            <id value="DissolutionEnd"/>
            <name value="Dissolution"/>
            <status value="active"/>
            <code>
               <coding>
                  <system value="http://dummy.loinc.org"/>
                  <code value="ZZZ"/>
                  <display value="Dissolution"/>
               </coding>
               <!--text value="Dissolution"/-->
            </code>
            <method>
               <text value="Apparatus 2 (paddles), UV measurement"/>
            </method>
            <qualifiedValue>
               <extension
                  url="http://hl7.org/fhir/uv/dx-pq/StructureDefinition/Extension-qualified-value-text-dxpq">
                  <!-- <extension url="http://accumulus.org/fhir/extension/qualifiedValueText">-->
                  <valueString value="As for release"/>
               </extension>
            </qualifiedValue>
         </ObservationDefinition>
      </resource>
   </entry>
   <entry>
      <fullUrl value="https://www.example.org/ObservationDefinition/Water"/>
      <resource>
         <ObservationDefinition>
            <id value="Water"/>
            <name value="Water_Content"/>
            <!--            <name value="Water Content"/>-->
            <status value="active"/>
            <code>
               <coding>
                  <system value="http://dummy.loinc.org"/>
                  <code value="WWW"/>
                  <display value="Water Content"/>
               </coding>
               <text value="Water Content"/>
            </code>
            <method>
               <text value="USP &lt;921&gt;"/>
            </method>
            <qualifiedValue>
               <range>
                  <high>
                     <value value="1.0"/>
                     <unit value="% w/w"/>
                  </high>
               </range>
            </qualifiedValue>
         </ObservationDefinition>
      </resource>
   </entry>
   <entry>
      <fullUrl value="https://www.example.org/ObservationDefinition/WaterEnd"/>
      <resource>
         <ObservationDefinition>
            <id value="WaterEnd"/>
            <name value="Water_Content"/>
            <!--            <name value="Water Content"/>-->
            <status value="active"/>
            <code>
               <coding>
                  <system value="http://dummy.loinc.org"/>
                  <code value="WWW"/>
                  <display value="Water Content"/>
               </coding>
               <text value="Water Content"/>
            </code>
            <method>
               <text value="USP &lt;921&gt;"/>
            </method>
            <qualifiedValue>
               <range>
                  <high>
                     <value value="2.0"/>
                     <unit value="% w/w"/>
                  </high>
               </range>
            </qualifiedValue>
         </ObservationDefinition>
      </resource>
   </entry>
   <entry>
      <fullUrl value="https://www.example.org/ObservationDefinition/Microbiological"/>
      <resource>
         <ObservationDefinition>
            <id value="Microbiological"/>
            <name value="Microbiological"/>
            <status value="active"/>
            <code>
               <coding>
                  <system value="http://dummy.loinc.org"/>
                  <code value="YYY"/>
                  <display value="Microbiological Quality"/>
               </coding>
               <text value="Microbiological Quality"/>
            </code>
            <method>
               <text value="Ph Eur"/>
            </method>
            <qualifiedValue>
               <extension
                  url="http://hl7.org/fhir/uv/dx-pq/StructureDefinition/Extension-qualified-value-text-dxpq">
                  <!-- <extension url="http://accumulus.org/fhir/extension/qualifiedValueText">-->
                  <valueString value="Shall comply with the requirements of the Ph Eur"/>
               </extension>
            </qualifiedValue>
         </ObservationDefinition>
      </resource>
   </entry>
   <entry>
      <fullUrl value="https://www.example.org/ObservationDefinition/MicrobiologicalEnd"/>
      <resource>
         <ObservationDefinition>
            <id value="MicrobiologicalEnd"/>
            <name value="Microbiological"/>
            <status value="active"/>
            <code>
               <coding>
                  <system value="http://dummy.loinc.org"/>
                  <code value="YYY"/>
                  <display value="Microbiological Quality"/>
               </coding>
               <text value="Microbiological Quality"/>
            </code>
            <method>
               <text value="Ph Eur"/>
            </method>
            <qualifiedValue>
               <extension
                  url="http://hl7.org/fhir/uv/dx-pq/StructureDefinition/Extension-qualified-value-text-dxpq">
                  <!-- <extension url="http://accumulus.org/fhir/extension/qualifiedValueText">-->
                  <valueString value="As for release"/>
               </extension>
            </qualifiedValue>
         </ObservationDefinition>
      </resource>
   </entry>
   <entry>
      <fullUrl value="https://www.example.org/ObservationDefinition/Uniformity"/>
      <resource>
         <ObservationDefinition>
            <id value="Uniformity"/>
            <name value="Uniformity_of_dosage"/>
            <!--            <name value="Uniformity of dosage"/>-->
            <status value="active"/>
            <code>
               <coding>
                  <system value="http://dummy.loinc.org"/>
                  <code value="ZZZ"/>
                  <display value="uniformity of dosage units (by weight)"/>
               </coding>
               <text value="uniformity of dosage units (by weight)"/>
            </code>
            <method>
               <text value="Weight variation"/>
            </method>
            <qualifiedValue>
               <extension
                  url="http://hl7.org/fhir/uv/dx-pq/StructureDefinition/Extension-qualified-value-text-dxpq">
                  <!-- <extension url="http://accumulus.org/fhir/extension/qualifiedValueText">-->
                  <valueString
                     value="Shall comply with the requirements of the harmonised USP/JP/Ph Eur"/>
               </extension>
            </qualifiedValue>
         </ObservationDefinition>
      </resource>
   </entry>
   <entry>
      <fullUrl value="https://www.example.org/ObservationDefinition/UniformityEnd"/>
      <resource>
         <ObservationDefinition>
            <id value="UniformityEnd"/>
            <name value="Uniformity_of_dosage"/>
            <!--            <name value="Uniformity of dosage"/>-->
            <status value="active"/>
            <code>
               <coding>
                  <system value="http://dummy.loinc.org"/>
                  <code value="ZZZ"/>
                  <display value="uniformity of dosage units (by weight)"/>
               </coding>
               <text value="uniformity of dosage units (by weight)"/>
            </code>
            <qualifiedValue>
               <extension
                  url="http://hl7.org/fhir/uv/dx-pq/StructureDefinition/Extension-qualified-value-text-dxpq">
                  <!-- <extension url="http://accumulus.org/fhir/extension/qualifiedValueText">-->
                  <valueString value="As for release"/>
               </extension>
            </qualifiedValue>
         </ObservationDefinition>
      </resource>
   </entry>
   <!-- Section 8 - Batch or Lot Information (batch 1 of 3) -->
   <entry>
      <fullUrl value="https://www.example.org/Medication/medication-actual-batch"/>
      <resource>
         <Medication>
            <id value="medication-actual-batch"/>
            <code>
               <extension
                  url="http://hl7.org/fhir/uv/dx-pq/StructureDefinition/Extension-medication-definition-dxpq">
                  <!-- <extension url="http://accumulus.org/fhir/extension/medicationDefinition">-->
                  <valueReference>
                     <!-- todo consider change this be the MID? -->
                     <reference value="MedicinalProductDefinition/product"/>
                     <!--reference value="urn:uuid:a0694a7a-aafa-4cbe-8135-c788a9a4d3d5"/-->
                  </valueReference>
               </extension>
            </code>
            <batch>
               <extension
                  url="http://hl7.org/fhir/StructureDefinition/medication-manufacturingBatch">
                  <extension
                     url="http://hl7.org/fhir/uv/dx-pq/StructureDefinition/Extension-batch-release-date-dxpq">
                     <!--                     <extension url="http://accumulus.org/fhir/extension/batchReleaseDate">-->
                     <valueDateTime value="2019-09-08"/>
                     <!-- #171 -->
                  </extension>
                  <extension
                     url="http://hl7.org/fhir/uv/dx-pq/StructureDefinition/Extension-manufacturing-process-dxpq">
                     <!--                  <extension url="http://accumulus.org/fhir/extension/manufacturingProcess">-->
                     <valueReference>
                        <reference value="PlanDefinition/manufacturingProcess"/>
                     </valueReference>
                  </extension>
                  <!-- removed extension for substance batch -->
                  <!--extension url="http://accumulus.org/fhir/extension/batchSubstanceBatch">
                    		<valueReference>
                    			<reference value="Substance/actual-batch-substance"/>
                    		</valueReference>                   
                    	</extension-->
                  <extension url="manufacturingDate">
                     <!-- #157 -->
                     <valueDateTime value="2020-06"/>
                  </extension>
                  <extension
                     url="http://hl7.org/fhir/uv/dx-pq/StructureDefinition/Extension-packaging-date-dxpq">
                     <!--<extension url="http://accumulus.org/fhir/extension/packagingDate">-->
                     <!-- #159 -->
                     <valueDateTime value="2020-08"/>
                  </extension>
                  <extension
                     url="http://hl7.org/fhir/uv/dx-pq/StructureDefinition/Extension-packaging-site-dxpq">
                     <!--                  <extension url="http://accumulus.org/fhir/extension/packagingSite">-->
                     <valueReference>
                        <reference value="Organization/packaging"/>
                     </valueReference>
                  </extension>
                  <extension url="batchQuantity">
                     <valueQuantity>
                        <!-- #26 -->
                        <!-- #155 -->
                        <!-- need to see if one of these needs changing -->
                        <value value="100100"/>
                        <unit value="tablets"/>
                     </valueQuantity>
                  </extension>
                  <extension
                     url="http://hl7.org/fhir/uv/dx-pq/StructureDefinition/Extension-actual-yield-dxpq">
                     <!--<extension url="http://accumulus.org/fhir/extension/actualYield">-->
                     <valueQuantity>
                        <!-- #160 -->
                        <value value="4.8"/>
                        <unit value="kg"/>
                     </valueQuantity>
                  </extension>
                  <extension url="batchUtilization">
                     <!-- #159 -->
                     <valueCodeableConcept>
                        <coding>
                           <extension
                              url="http://hl7.org/fhir/uv/dx-pq/StructureDefinition/Extension-instance-comment-dxpq">
                              <!--                           <extension url="http://nprogram.co.uk/fhir/extension/instanceComment">-->
                              <valueString
                                 value="Comment: This has a value set defined in PQ/CMC but no code system"
                              />
                           </extension>
                           <system
                              value="http://temp.hl7.org/fhir/us/pq-cmc/CodeSystem/pqcmc-batch-utilization-terminology"/>
                           <code value="C185328"/>
                           <display value="Stability Study"/>
                        </coding>
                        <text value="PPQ / Stability"/>
                     </valueCodeableConcept>
                  </extension>
                  <extension url="assignedManufacturer">
                     <valueReference>
                        <!-- #158 -->
                        <reference value="Organization/manufacturer"/>
                     </valueReference>
                  </extension>
                  <extension url="container">
                     <extension url="closureSystemDescription">
                        <valueString value="100 cc HDPE Bottle 2 g desiccant"/>
                     </extension>
                  </extension>
               </extension>
               <!-- #153 -->
               <lotNumber value="33445"/>
            </batch>
         </Medication>
      </resource>
   </entry>
   <!-- Section 8 - Batch or Lot Information (another batch 2 of 3) -->
   <entry>
      <fullUrl value="https://www.example.org/Medication/medication-actual-batch-2"/>
      <resource>
         <Medication>
            <id value="medication-actual-batch-2"/>
            <code>
               <extension
                  url="http://hl7.org/fhir/uv/dx-pq/StructureDefinition/Extension-medication-definition-dxpq">
                  <!-- <extension url="http://accumulus.org/fhir/extension/medicationDefinition">-->
                  <valueReference>
                     <reference value="MedicinalProductDefinition/product"/>
                  </valueReference>
               </extension>
            </code>
            <batch>
               <extension
                  url="http://hl7.org/fhir/StructureDefinition/medication-manufacturingBatch">
                  <extension
                     url="http://hl7.org/fhir/uv/dx-pq/StructureDefinition/Extension-batch-release-date-dxpq">
                     <!--                  <extension url="http://accumulus.org/fhir/extension/batchReleaseDate">-->
                     <valueDateTime value="2019-09-08"/>
                  </extension>
                  <extension
                     url="http://hl7.org/fhir/uv/dx-pq/StructureDefinition/Extension-manufacturing-process-dxpq">
                     <!--                  <extension url="http://accumulus.org/fhir/extension/manufacturingProcess">-->
                     <valueReference>
                        <reference value="PlanDefinition/manufacturingProcess"/>
                     </valueReference>
                  </extension>
                  <!-- removed extension for substance batch -->
                  <!--extension url="http://accumulus.org/fhir/extension/batchSubstanceBatch">
                    		<valueReference>
                    			<reference value="Substance/actual-batch-substance-2"/>
                    		</valueReference>                   
                    	</extension-->
                  <extension url="manufacturingDate">
                     <valueDateTime value="2020-06"/>
                  </extension>
                  <extension
                     url="http://hl7.org/fhir/uv/dx-pq/StructureDefinition/Extension-packaging-date-dxpq">
                     <!--<extension url="http://accumulus.org/fhir/extension/packagingDate">-->
                     <valueDateTime value="2020-08"/>
                  </extension>
                  <extension
                     url="http://hl7.org/fhir/uv/dx-pq/StructureDefinition/Extension-packaging-site-dxpq">
                     <!--                  <extension url="http://accumulus.org/fhir/extension/packagingSite">-->
                     <valueReference>
                        <reference value="Organization/packaging"/>
                     </valueReference>
                  </extension>
                  <extension url="batchQuantity">
                     <valueQuantity>
                        <value value="100050"/>
                        <unit value="tablets"/>
                     </valueQuantity>
                  </extension>
                  <extension
                     url="http://hl7.org/fhir/uv/dx-pq/StructureDefinition/Extension-actual-yield-dxpq">
                     <!--<extension url="http://accumulus.org/fhir/extension/actualYield">-->
                     <valueQuantity>
                        <value value="4.8"/>
                        <unit value="kg"/>
                     </valueQuantity>
                  </extension>
                  <extension url="batchUtilization">
                     <valueCodeableConcept>
                        <coding>
                           <extension
                              url="http://hl7.org/fhir/uv/dx-pq/StructureDefinition/Extension-instance-comment-dxpq">
                              <!--                           <extension url="http://nprogram.co.uk/fhir/extension/instanceComment">-->
                              <valueString
                                 value="Comment: This has a value set defined in PQ/CMC but no code system"
                              />
                           </extension>
                           <system
                              value="http://temp.hl7.org/fhir/us/pq-cmc/CodeSystem/pqcmc-batch-utilization-terminology"/>
                           <code value="C185328"/>
                           <display value="Stability Study"/>
                        </coding>
                        <text value="PPQ / Stability"/>
                     </valueCodeableConcept>
                  </extension>
                  <extension url="assignedManufacturer">
                     <valueReference>
                        <reference value="Organization/manufacturer"/>
                     </valueReference>
                  </extension>
                  <extension url="container">
                     <extension url="closureSystemDescription">
                        <valueString value="100 cc HDPE Bottle 2 g desiccant"/>
                     </extension>
                  </extension>
               </extension>
               <lotNumber value="33446"/>
            </batch>
         </Medication>
      </resource>
   </entry>
   <!-- Section 8 - Batch or Lot Information (another batch 3 of 3) -->
   <entry>
      <fullUrl value="https://www.example.org/Medication/medication-actual-batch-3"/>
      <resource>
         <Medication>
            <id value="medication-actual-batch-3"/>
            <code>
               <extension
                  url="http://hl7.org/fhir/uv/dx-pq/StructureDefinition/Extension-medication-definition-dxpq">
                  <!-- <extension url="http://accumulus.org/fhir/extension/medicationDefinition">-->
                  <valueReference>
                     <reference value="MedicinalProductDefinition/product"/>
                  </valueReference>
               </extension>
            </code>
            <batch>
               <extension
                  url="http://hl7.org/fhir/StructureDefinition/medication-manufacturingBatch">
                  <extension
                     url="http://hl7.org/fhir/uv/dx-pq/StructureDefinition/Extension-batch-release-date-dxpq">
                     <!--                  <extension url="http://accumulus.org/fhir/extension/batchReleaseDate">-->
                     <valueDateTime value="2019-09-08"/>
                  </extension>
                  <extension
                     url="http://hl7.org/fhir/uv/dx-pq/StructureDefinition/Extension-manufacturing-process-dxpq">
                     <!--                  <extension url="http://accumulus.org/fhir/extension/manufacturingProcess">-->
                     <valueReference>
                        <reference value="PlanDefinition/manufacturingProcess"/>
                     </valueReference>
                  </extension>
                  <extension url="manufacturingDate">
                     <valueDateTime value="2020-06"/>
                  </extension>
                  <extension
                     url="http://hl7.org/fhir/uv/dx-pq/StructureDefinition/Extension-packaging-date-dxpq">
                     <!--  <extension url="http://accumulus.org/fhir/extension/packagingDate">-->
                     <valueDateTime value="2020-08"/>
                  </extension>
                  <extension
                     url="http://hl7.org/fhir/uv/dx-pq/StructureDefinition/Extension-packaging-site-dxpq">
                     <!--  <extension url="http://accumulus.org/fhir/extension/packagingSite">-->
                     <valueReference>
                        <reference value="Organization/packaging"/>
                     </valueReference>
                  </extension>

                  <extension url="batchQuantity">
                     <valueQuantity>
                        <value value="100125"/>
                        <unit value="tablets"/>
                     </valueQuantity>
                  </extension>
                  <extension
                     url="http://hl7.org/fhir/uv/dx-pq/StructureDefinition/Extension-actual-yield-dxpq">
                     <!--                  <extension url="http://accumulus.org/fhir/extension/actualYield">-->
                     <valueQuantity>
                        <value value="4.8"/>
                        <unit value="kg"/>
                     </valueQuantity>
                  </extension>
                  <extension url="batchUtilization">
                     <valueCodeableConcept>
                        <coding>
                           <extension
                              url="http://hl7.org/fhir/uv/dx-pq/StructureDefinition/Extension-instance-comment-dxpq">
                              <!--                           <extension url="http://nprogram.co.uk/fhir/extension/instanceComment">-->
                              <valueString
                                 value="Comment: This has a value set defined in PQ/CMC but no code system"
                              />
                           </extension>
                           <system
                              value="http://temp.hl7.org/fhir/us/pq-cmc/CodeSystem/pqcmc-batch-utilization-terminology"/>
                           <code value="C185328"/>
                           <display value="Stability Study"/>
                        </coding>
                        <text value="PPQ / Stability"/>
                     </valueCodeableConcept>
                  </extension>
                  <extension url="assignedManufacturer">
                     <valueReference>
                        <reference value="Organization/manufacturer"/>
                     </valueReference>
                  </extension>
                  <extension url="container">
                     <extension url="closureSystemDescription">
                        <valueString value="100 cc HDPE Bottle 2 g desiccant"/>
                     </extension>
                  </extension>
               </extension>
               <lotNumber value="33447"/>
            </batch>
         </Medication>
      </resource>
   </entry>
   <!-- Section 4.1 - Manufacturer -->
   <entry>
      <fullUrl value="https://www.example.org/Organization/manufacturer"/>
      <resource>
         <Organization>
            <id value="manufacturer"/>
            <identifier>
               <!-- FDA establishment identifier -->
               <system value="urn:oid:2.16.840.1.113883.4.82"/>
               <value value="3010027650"/>
            </identifier>
            <name value="AAA Pharmaceutical, Inc."/>
            <contact>
               <address>
                  <line value="681 Main Street"/>
                  <city value="Lumberton"/>
                  <state value="New Jersey"/>
                  <postalCode value="08048"/>
                  <country value="USA"/>
               </address>
            </contact>
         </Organization>
      </resource>
   </entry>
   <entry>
      <fullUrl value="https://www.example.org/Organization/packaging"/>
      <resource>
         <Organization>
            <id value="packaging"/>
            <name value="MySite"/>
         </Organization>
      </resource>
   </entry>
   <!-- Diagnostic report doesn't carry much extra value but does collect all the observations -->
   <entry>
      <fullUrl value="https://www.example.org/DiagnosticReport/batchAnalysisReport"/>
      <resource>
         <DiagnosticReport>
            <!-- ideally this wants a subject, but it can only be a Medication (batch) and we have multiple. 
                     however the observations themselves do have subjects -->
            <id value="batchAnalysisReport"/>
            <extension url="http://hl7.org/fhir/StructureDefinition/workflow-triggeredBy">
               <valueReference>
                  <reference value="PlanDefinition/specificationProtocol"/>
               </valueReference>
            </extension>
            <status value="final"/>
            <code>
               <coding>
                  <system value="http://example.org/fhir/code/reportType"/>
                  <code value="111"/>
                  <display value="Batch Analysis Report"/>
               </coding>
            </code>
            <effectiveDateTime value="2020-12"/>
            <result>
               <reference value="Observation/observationDescription"/>
            </result>
            <result>
               <reference value="Observation/observationDescription2"/>
            </result>
            <result>
               <reference value="Observation/observationDescription3"/>
            </result>
            <result>
               <reference value="Observation/observationIdentification"/>
            </result>
            <result>
               <reference value="Observation/observationIdentification2"/>
            </result>
            <result>
               <reference value="Observation/observationIdentification3"/>
            </result>
            <result>
               <reference value="Observation/observationAssay"/>
            </result>
            <result>
               <reference value="Observation/observationAssay2"/>
            </result>
            <result>
               <reference value="Observation/observationAssay3"/>
            </result>
            <result>
               <reference value="Observation/observationDegradation-imp1"/>
            </result>
            <result>
               <reference value="Observation/observationDegradation-imp1-2"/>
            </result>
            <result>
               <reference value="Observation/observationDegradation-imp1-3"/>
            </result>
            <result>
               <reference value="Observation/observationDegradation-imp2"/>
            </result>
            <result>
               <reference value="Observation/observationDegradation-imp2-2"/>
            </result>
            <result>
               <reference value="Observation/observationDegradation-imp2-3"/>
            </result>
            <result>
               <reference value="Observation/observationDegradation-imp3"/>
            </result>
            <result>
               <reference value="Observation/observationDegradation-imp3-2"/>
            </result>
            <result>
               <reference value="Observation/observationDegradation-imp3-3"/>
            </result>
            <result>
               <reference value="Observation/observationDegradation-imp-unspecified"/>
            </result>
            <result>
               <reference value="Observation/observationDegradation-imp-unspecified-2"/>
            </result>
            <result>
               <reference value="Observation/observationDegradation-imp-unspecified-3"/>
            </result>
            <result>
               <reference value="Observation/observationDegradation-imp-total"/>
            </result>
            <result>
               <reference value="Observation/observationDegradation-imp-total-2"/>
            </result>
            <result>
               <reference value="Observation/observationDegradation-imp-total-3"/>
            </result>
            <result>
               <reference value="Observation/observationDissolution"/>
            </result>
            <result>
               <reference value="Observation/observationDissolution2"/>
            </result>
            <result>
               <reference value="Observation/observationDissolution3"/>
            </result>
            <result>
               <reference value="Observation/observationDissolutionQ80"/>
            </result>
            <result>
               <reference value="Observation/observationDissolutionQ802"/>
            </result>
            <result>
               <reference value="Observation/observationDissolutionQ803"/>
            </result>
            <result>
               <reference value="Observation/observationUniformity"/>
            </result>
            <result>
               <reference value="Observation/observationUniformity2"/>
            </result>
            <result>
               <reference value="Observation/observationUniformity3"/>
            </result>
            <result>
               <reference value="Observation/observationMicro"/>
            </result>
            <result>
               <reference value="Observation/observationMicro2"/>
            </result>
            <result>
               <reference value="Observation/observationMicro3"/>
            </result>
            <result>
               <reference value="Observation/observationWater"/>
            </result>
            <result>
               <reference value="Observation/observationWater2"/>
            </result>
            <result>
               <reference value="Observation/observationWater3"/>
            </result>
            <conclusion value="The samples have been assessed and the conclusion is..."/>
         </DiagnosticReport>
      </resource>
   </entry>
   <entry>
      <fullUrl value="https://www.example.org/Observation/observationDescription"/>
      <resource>
         <Observation>
            <id value="observationDescription"/>
            <instantiatesReference>
               <reference value="ObservationDefinition/Description"/>
            </instantiatesReference>
            <status value="final"/>
            <code>
               <coding>
                  <system value="http://dummy.loinc.org"/>
                  <code value="XXX"/>
                  <display value="Description"/>
               </coding>
               <text value="Description"/>
            </code>
            <subject>
               <reference value="Medication/medication-actual-batch"/>
            </subject>
            <valueCodeableConcept>
               <text value="Complies"/>
            </valueCodeableConcept>
         </Observation>
      </resource>
   </entry>
   <entry>
      <fullUrl value="https://www.example.org/Observation/observationDescription2"/>
      <resource>
         <Observation>
            <id value="observationDescription2"/>
            <instantiatesReference>
               <reference value="ObservationDefinition/Description"/>
            </instantiatesReference>
            <status value="final"/>
            <code>
               <coding>
                  <system value="http://dummy.loinc.org"/>
                  <code value="XXX"/>
                  <display value="Description"/>
               </coding>
               <text value="Description"/>
            </code>
            <subject>
               <reference value="Medication/medication-actual-batch-2"/>
            </subject>
            <valueCodeableConcept>
               <text value="Does not comply"/>
            </valueCodeableConcept>
         </Observation>
      </resource>
   </entry>
   <entry>
      <fullUrl value="https://www.example.org/Observation/observationDescription3"/>
      <resource>
         <Observation>
            <id value="observationDescription3"/>
            <instantiatesReference>
               <reference value="ObservationDefinition/Description"/>
            </instantiatesReference>
            <status value="final"/>
            <code>
               <coding>
                  <system value="http://dummy.loinc.org"/>
                  <code value="XXX"/>
                  <display value="Description"/>
               </coding>
               <text value="Description"/>
            </code>
            <subject>
               <reference value="Medication/medication-actual-batch-3"/>
            </subject>
            <valueCodeableConcept>
               <text value="Complies"/>
            </valueCodeableConcept>
         </Observation>
      </resource>
   </entry>
   <entry>
      <fullUrl value="https://www.example.org/Observation/observationIdentification"/>
      <resource>
         <Observation>
            <id value="observationIdentification"/>
            <instantiatesReference>
               <reference value="ObservationDefinition/Identification"/>
            </instantiatesReference>
            <status value="final"/>
            <code>
               <coding>
                  <system value="http://dummy.loinc.org"/>
                  <code value="XXX"/>
                  <display value="Identification"/>
               </coding>
               <text value="Identification"/>
            </code>
            <subject>
               <reference value="Medication/medication-actual-batch"/>
            </subject>
            <valueCodeableConcept>
               <text value="Complies"/>
            </valueCodeableConcept>
         </Observation>
      </resource>
   </entry>
   <entry>
      <fullUrl value="https://www.example.org/Observation/observationIdentification2"/>
      <resource>
         <Observation>
            <id value="observationIdentification2"/>
            <instantiatesReference>
               <reference value="ObservationDefinition/Identification"/>
            </instantiatesReference>
            <status value="final"/>
            <code>
               <coding>
                  <system value="http://dummy.loinc.org"/>
                  <code value="XXX"/>
                  <display value="Identification"/>
               </coding>
               <text value="Identification"/>
            </code>
            <subject>
               <reference value="Medication/medication-actual-batch-2"/>
            </subject>
            <valueCodeableConcept>
               <text value="Does not comply"/>
            </valueCodeableConcept>
         </Observation>
      </resource>
   </entry>
   <entry>
      <fullUrl value="https://www.example.org/Observation/observationIdentification3"/>
      <resource>
         <Observation>
            <id value="observationIdentification3"/>
            <instantiatesReference>
               <reference value="ObservationDefinition/Identification"/>
            </instantiatesReference>
            <status value="final"/>
            <code>
               <coding>
                  <system value="http://dummy.loinc.org"/>
                  <code value="XXX"/>
                  <display value="Identification"/>
               </coding>
               <text value="Identification"/>
            </code>
            <subject>
               <reference value="Medication/medication-actual-batch-3"/>
            </subject>
            <valueCodeableConcept>
               <text value="Complies"/>
            </valueCodeableConcept>
         </Observation>
      </resource>
   </entry>
   <entry>
      <fullUrl value="https://www.example.org/Observation/observationAssay"/>
      <resource>
         <Observation>
            <id value="observationAssay"/>
            <instantiatesReference>
               <reference value="ObservationDefinition/Assay"/>
            </instantiatesReference>
            <status value="final"/>
            <code>
               <coding>
                  <system value="http://dummy.loinc.org"/>
                  <code value="XXX"/>
                  <display value="Assay"/>
               </coding>
               <text value="Assay"/>
            </code>
            <subject>
               <reference value="Medication/medication-actual-batch"/>
            </subject>
            <valueQuantity>
               <value value="103"/>
               <unit value="%"/>
               <system value="http://dummy.unitsofmeasure.org"/>
               <code value="%"/>
            </valueQuantity>
         </Observation>
      </resource>
   </entry>
   <entry>
      <fullUrl value="https://www.example.org/Observation/observationAssay2"/>
      <resource>
         <Observation>
            <id value="observationAssay2"/>
            <instantiatesReference>
               <reference value="ObservationDefinition/Assay"/>
            </instantiatesReference>
            <status value="final"/>
            <code>
               <coding>
                  <system value="http://dummy.loinc.org"/>
                  <code value="XXX"/>
                  <display value="Assay"/>
               </coding>
               <text value="Assay"/>
            </code>
            <subject>
               <reference value="Medication/medication-actual-batch-2"/>
            </subject>
            <valueQuantity>
               <value value="102"/>
               <unit value="%"/>
               <system value="http://dummy.unitsofmeasure.org"/>
               <code value="%"/>
            </valueQuantity>
         </Observation>
      </resource>
   </entry>
   <entry>
      <fullUrl value="https://www.example.org/Observation/observationAssay3"/>
      <resource>
         <Observation>
            <id value="observationAssay3"/>
            <instantiatesReference>
               <reference value="ObservationDefinition/Assay"/>
            </instantiatesReference>
            <status value="final"/>
            <code>
               <coding>
                  <system value="http://dummy.loinc.org"/>
                  <code value="XXX"/>
                  <display value="Assay"/>
               </coding>
               <text value="Assay"/>
            </code>
            <subject>
               <reference value="Medication/medication-actual-batch-3"/>
            </subject>
            <valueQuantity>
               <value value="101"/>
               <unit value="%"/>
               <system value="http://dummy.unitsofmeasure.org"/>
               <code value="%"/>
            </valueQuantity>
         </Observation>
      </resource>
   </entry>
   <entry>
      <fullUrl value="https://www.example.org/Observation/observationDegradation-imp1"/>
      <resource>
         <Observation>
            <id value="observationDegradation-imp1"/>
            <instantiatesReference>
               <reference value="ObservationDefinition/Degradation"/>
            </instantiatesReference>
            <status value="final"/>
            <code>
               <coding>
                  <system value="http://dummy.loinc.org"/>
                  <code value="DGP"/>
                  <display value="Degradation Products"/>
               </coding>
               <text value="Degradation Products"/>
            </code>
            <subject>
               <reference value="Medication/medication-actual-batch"/>
            </subject>
            <valueQuantity>
               <value value="0.1"/>
               <unit value="% w/w"/>

               <system value="http://dummy.unitsofmeasure.org"/>
               <code value="% {w/w}"/>
            </valueQuantity>
            <component>
               <code>
                  <coding>
                     <system value="http://dummy.loinc.org"/>
                     <code value="IMP"/>
                     <display value="Impurity"/>
                  </coding>
               </code>
               <valueCodeableConcept>
                  <!-- could have the code of an impurity substance, or could have an extension to point to it as a resource -->
                  <text value="Impurity 1"/>
               </valueCodeableConcept>
            </component>
         </Observation>
      </resource>
   </entry>
   <entry>
      <fullUrl value="https://www.example.org/Observation/observationDegradation-imp1-2"/>
      <resource>
         <Observation>
            <id value="observationDegradation-imp1-2"/>
            <instantiatesReference>
               <reference value="ObservationDefinition/Degradation"/>
            </instantiatesReference>
            <status value="final"/>
            <code>
               <coding>
                  <system value="http://dummy.loinc.org"/>
                  <code value="DGP"/>
                  <display value="Degradation Products"/>
               </coding>
               <text value="Degradation Products"/>
            </code>
            <subject>
               <reference value="Medication/medication-actual-batch-2"/>
            </subject>
            <valueQuantity>
               <value value="0.2"/>
               <unit value="% w/w"/>

               <system value="http://dummy.unitsofmeasure.org"/>
               <code value="% {w/w}"/>
            </valueQuantity>
            <component>
               <code>
                  <coding>
                     <system value="http://dummy.loinc.org"/>
                     <code value="IMP"/>
                     <display value="Impurity"/>
                  </coding>
               </code>
               <valueCodeableConcept>
                  <!-- could have the code of an impurity substance, or could have an extension to point to it as a resource -->
                  <text value="Impurity 1"/>
               </valueCodeableConcept>
            </component>
         </Observation>
      </resource>
   </entry>
   <entry>
      <fullUrl value="https://www.example.org/Observation/observationDegradation-imp1-3"/>
      <resource>
         <Observation>
            <id value="observationDegradation-imp1-3"/>
            <instantiatesReference>
               <reference value="ObservationDefinition/Degradation"/>
            </instantiatesReference>
            <status value="final"/>
            <code>
               <coding>
                  <system value="http://dummy.loinc.org"/>
                  <code value="DGP"/>
                  <display value="Degradation Products"/>
               </coding>
               <text value="Degradation Products"/>
            </code>
            <subject>
               <reference value="Medication/medication-actual-batch-3"/>
            </subject>
            <valueQuantity>
               <value value="0.2"/>
               <unit value="% w/w"/>

               <system value="http://dummy.unitsofmeasure.org"/>
               <code value="% {w/w}"/>
            </valueQuantity>
            <component>
               <code>
                  <coding>
                     <system value="http://dummy.loinc.org"/>
                     <code value="IMP"/>
                     <display value="Impurity"/>
                  </coding>
               </code>
               <valueCodeableConcept>
                  <!-- could have the code of an impurity substance, or could have an extension to point to it as a resource -->
                  <text value="Impurity 1"/>
               </valueCodeableConcept>
            </component>
         </Observation>
      </resource>
   </entry>
   <entry>
      <fullUrl value="https://www.example.org/Observation/observationDegradation-imp2"/>
      <resource>
         <Observation>
            <id value="observationDegradation-imp2"/>
            <instantiatesReference>
               <reference value="ObservationDefinition/Degradation"/>
            </instantiatesReference>
            <status value="final"/>
            <code>
               <coding>
                  <system value="http://dummy.loinc.org"/>
                  <code value="DGP"/>
                  <display value="Degradation Products"/>
               </coding>
               <text value="Degradation Products"/>
            </code>
            <subject>
               <reference value="Medication/medication-actual-batch"/>
            </subject>
            <valueQuantity>
               <value value="0.2"/>
               <unit value="% w/w"/>

               <system value="http://dummy.unitsofmeasure.org"/>
               <code value="% {w/w}"/>
            </valueQuantity>
            <component>
               <code>
                  <coding>
                     <system value="http://dummy.loinc.org"/>
                     <code value="IMP"/>
                     <display value="Impurity"/>
                  </coding>
               </code>
               <valueCodeableConcept>
                  <!-- could have the code of an impurity substance, or could have an extension to point to it as a resource -->
                  <text value="Impurity 2"/>
               </valueCodeableConcept>
            </component>
         </Observation>
      </resource>
   </entry>
   <entry>
      <fullUrl value="https://www.example.org/Observation/observationDegradation-imp2-2"/>
      <resource>
         <Observation>
            <id value="observationDegradation-imp2-2"/>
            <instantiatesReference>
               <reference value="ObservationDefinition/Degradation"/>
            </instantiatesReference>
            <status value="final"/>
            <code>
               <coding>
                  <system value="http://dummy.loinc.org"/>
                  <code value="DGP"/>
                  <display value="Degradation Products"/>
               </coding>
               <text value="Degradation Products"/>
            </code>
            <subject>
               <reference value="Medication/medication-actual-batch-2"/>
            </subject>
            <valueQuantity>
               <value value="0.2"/>
               <unit value="% w/w"/>

               <system value="http://dummy.unitsofmeasure.org"/>
               <code value="% {w/w}"/>
            </valueQuantity>
            <component>
               <code>
                  <coding>
                     <system value="http://dummy.loinc.org"/>
                     <code value="IMP"/>
                     <display value="Impurity"/>
                  </coding>
               </code>
               <valueCodeableConcept>
                  <!-- could have the code of an impurity substance, or could have an extension to point to it as a resource -->
                  <text value="Impurity 2"/>
               </valueCodeableConcept>
            </component>
         </Observation>
      </resource>
   </entry>
   <entry>
      <fullUrl value="https://www.example.org/Observation/observationDegradation-imp2-3"/>
      <resource>
         <Observation>
            <id value="observationDegradation-imp2-3"/>
            <instantiatesReference>
               <reference value="ObservationDefinition/Degradation"/>
            </instantiatesReference>
            <status value="final"/>
            <code>
               <coding>
                  <system value="http://dummy.loinc.org"/>
                  <code value="DGP"/>
                  <display value="Degradation Products"/>
               </coding>
               <text value="Degradation Products"/>
            </code>
            <subject>
               <reference value="Medication/medication-actual-batch-3"/>
            </subject>
            <valueQuantity>
               <value value="0.2"/>
               <unit value="% w/w"/>

               <system value="http://dummy.unitsofmeasure.org"/>
               <code value="% {w/w}"/>
            </valueQuantity>
            <component>
               <code>
                  <coding>
                     <system value="http://dummy.loinc.org"/>
                     <code value="IMP"/>
                     <display value="Impurity"/>
                  </coding>
               </code>
               <valueCodeableConcept>
                  <!-- could have the code of an impurity substance, or could have an extension to point to it as a resource -->
                  <text value="Impurity 2"/>
               </valueCodeableConcept>
            </component>
         </Observation>
      </resource>
   </entry>
   <entry>
      <fullUrl value="https://www.example.org/Observation/observationDegradation-imp3"/>
      <resource>
         <Observation>
            <id value="observationDegradation-imp3"/>
            <instantiatesReference>
               <reference value="ObservationDefinition/Degradation"/>
            </instantiatesReference>
            <status value="final"/>
            <code>
               <coding>
                  <system value="http://dummy.loinc.org"/>
                  <code value="DGP"/>
                  <display value="Degradation Products"/>
               </coding>
               <text value="Degradation Products"/>
            </code>
            <subject>
               <reference value="Medication/medication-actual-batch"/>
            </subject>
            <valueQuantity>
               <value value="0.2"/>
               <unit value="% w/w"/>

               <system value="http://dummy.unitsofmeasure.org"/>
               <code value="% {w/w}"/>
            </valueQuantity>
            <component>
               <code>
                  <coding>
                     <system value="http://dummy.loinc.org"/>
                     <code value="IMP"/>
                     <display value="Impurity"/>
                  </coding>
               </code>
               <valueCodeableConcept>
                  <!-- could have the code of an impurity substance, or could have an extension to point to it as a resource -->
                  <text value="Impurity 3"/>
               </valueCodeableConcept>
            </component>
         </Observation>
      </resource>
   </entry>
   <entry>
      <fullUrl value="https://www.example.org/Observation/observationDegradation-imp3-2"/>
      <resource>
         <Observation>
            <id value="observationDegradation-imp3-2"/>
            <instantiatesReference>
               <reference value="ObservationDefinition/Degradation"/>
            </instantiatesReference>
            <status value="final"/>
            <code>
               <coding>
                  <system value="http://dummy.loinc.org"/>
                  <code value="DGP"/>
                  <display value="Degradation Products"/>
               </coding>
               <text value="Degradation Products"/>
            </code>
            <subject>
               <reference value="Medication/medication-actual-batch-2"/>
            </subject>
            <valueQuantity>
               <value value="0.2"/>
               <unit value="% w/w"/>

               <system value="http://dummy.unitsofmeasure.org"/>
               <code value="% {w/w}"/>
            </valueQuantity>
            <component>
               <code>
                  <coding>
                     <system value="http://dummy.loinc.org"/>
                     <code value="IMP"/>
                     <display value="Impurity"/>
                  </coding>
               </code>
               <valueCodeableConcept>
                  <!-- could have the code of an impurity substance, or could have an extension to point to it as a resource -->
                  <text value="Impurity 3"/>
               </valueCodeableConcept>
            </component>
         </Observation>
      </resource>
   </entry>
   <entry>
      <fullUrl value="https://www.example.org/Observation/observationDegradation-imp3-3"/>
      <resource>
         <Observation>
            <id value="observationDegradation-imp3-3"/>
            <instantiatesReference>
               <reference value="ObservationDefinition/Degradation"/>
            </instantiatesReference>
            <status value="final"/>
            <code>
               <coding>
                  <system value="http://dummy.loinc.org"/>
                  <code value="DGP"/>
                  <display value="Degradation Products"/>
               </coding>
               <text value="Degradation Products"/>
            </code>
            <subject>
               <reference value="Medication/medication-actual-batch-3"/>
            </subject>
            <valueQuantity>
               <value value="0.2"/>
               <unit value="% w/w"/>

               <system value="http://dummy.unitsofmeasure.org"/>
               <code value="% {w/w}"/>
            </valueQuantity>
            <component>
               <code>
                  <coding>
                     <system value="http://dummy.loinc.org"/>
                     <code value="IMP"/>
                     <display value="Impurity"/>
                  </coding>
               </code>
               <valueCodeableConcept>
                  <!-- could have the code of an impurity substance, or could have an extension to point to it as a resource -->
                  <text value="Impurity 3"/>
               </valueCodeableConcept>
            </component>
         </Observation>
      </resource>
   </entry>
   <entry>
      <fullUrl value="https://www.example.org/Observation/observationDegradation-imp-unspecified"/>
      <resource>
         <Observation>
            <id value="observationDegradation-imp-unspecified"/>
            <instantiatesReference>
               <reference value="ObservationDefinition/Degradation"/>
            </instantiatesReference>
            <status value="final"/>
            <code>
               <coding>
                  <system value="http://dummy.loinc.org"/>
                  <code value="DGP"/>
                  <display value="Degradation Products"/>
               </coding>
               <text value="Degradation Products"/>
            </code>
            <subject>
               <reference value="Medication/medication-actual-batch"/>
            </subject>
            <valueQuantity>
               <value value="0.1"/>
               <unit value="% w/w"/>

               <system value="http://dummy.unitsofmeasure.org"/>
               <code value="% {w/w}"/>
            </valueQuantity>
            <component>
               <code>
                  <coding>
                     <system value="http://dummy.loinc.org"/>
                     <code value="IMP"/>
                     <display value="Impurity"/>
                  </coding>
               </code>
               <valueCodeableConcept>
                  <!-- could have the code of an impurity substance, or could have an extension to point to it as a resource -->
                  <text value="Individual unspecified degradation products"/>
               </valueCodeableConcept>
            </component>
         </Observation>
      </resource>
   </entry>
   <entry>
      <fullUrl value="https://www.example.org/Observation/observationDegradation-imp-unspecified-2"/>
      <resource>
         <Observation>
            <id value="observationDegradation-imp-unspecified-2"/>
            <instantiatesReference>
               <reference value="ObservationDefinition/Degradation"/>
            </instantiatesReference>
            <status value="final"/>
            <code>
               <coding>
                  <system value="http://dummy.loinc.org"/>
                  <code value="DGP"/>
                  <display value="Degradation Products"/>
               </coding>
               <text value="Degradation Products"/>
            </code>
            <subject>
               <reference value="Medication/medication-actual-batch-2"/>
            </subject>
            <valueQuantity>
               <value value="0.1"/>
               <unit value="% w/w"/>

               <system value="http://dummy.unitsofmeasure.org"/>
               <code value="% {w/w}"/>
            </valueQuantity>
            <component>
               <code>
                  <coding>
                     <system value="http://dummy.loinc.org"/>
                     <code value="IMP"/>
                     <display value="Impurity"/>
                  </coding>
               </code>
               <valueCodeableConcept>
                  <!-- could have the code of an impurity substance, or could have an extension to point to it as a resource -->
                  <text value="Individual unspecified degradation products"/>
               </valueCodeableConcept>
            </component>
         </Observation>
      </resource>
   </entry>
   <entry>
      <fullUrl value="https://www.example.org/Observation/observationDegradation-imp-unspecified-3"/>
      <resource>
         <Observation>
            <id value="observationDegradation-imp-unspecified-3"/>
            <instantiatesReference>
               <reference value="ObservationDefinition/Degradation"/>
            </instantiatesReference>
            <status value="final"/>
            <code>
               <coding>
                  <system value="http://dummy.loinc.org"/>
                  <code value="DGP"/>
                  <display value="Degradation Products"/>
               </coding>
               <text value="Degradation Products"/>
            </code>
            <subject>
               <reference value="Medication/medication-actual-batch-3"/>
            </subject>
            <valueQuantity>
               <value value="0.1"/>
               <unit value="% w/w"/>

               <system value="http://dummy.unitsofmeasure.org"/>
               <code value="% {w/w}"/>
            </valueQuantity>
            <component>
               <code>
                  <coding>
                     <system value="http://dummy.loinc.org"/>
                     <code value="IMP"/>
                     <display value="Impurity"/>
                  </coding>
               </code>
               <valueCodeableConcept>
                  <!-- could have the code of an impurity substance, or could have an extension to point to it as a resource -->
                  <text value="Individual unspecified degradation products"/>
               </valueCodeableConcept>
            </component>
         </Observation>
      </resource>
   </entry>
   <entry>
      <fullUrl value="https://www.example.org/Observation/observationDegradation-imp-total"/>
      <resource>
         <Observation>
            <id value="observationDegradation-imp-total"/>
            <instantiatesReference>
               <reference value="ObservationDefinition/Degradation"/>
            </instantiatesReference>
            <status value="final"/>
            <code>
               <coding>
                  <system value="http://dummy.loinc.org"/>
                  <code value="DGP"/>
                  <display value="Degradation Products"/>
               </coding>
               <text value="Degradation Products"/>
            </code>
            <subject>
               <reference value="Medication/medication-actual-batch"/>
            </subject>
            <valueQuantity>
               <value value="0.6"/>
               <unit value="% w/w"/>

               <system value="http://dummy.unitsofmeasure.org"/>
               <code value="% {w/w}"/>
            </valueQuantity>
            <component>
               <code>
                  <coding>
                     <system value="http://dummy.loinc.org"/>
                     <code value="IMP"/>
                     <display value="Impurity"/>
                  </coding>
               </code>
               <valueCodeableConcept>
                  <!-- could have the code of an impurity substance, or could have an extension to point to it as a resource -->
                  <text value="Total degradation products"/>
               </valueCodeableConcept>
            </component>
         </Observation>
      </resource>
   </entry>
   <entry>
      <fullUrl value="https://www.example.org/Observation/observationDegradation-imp-total-2"/>
      <resource>
         <Observation>
            <id value="observationDegradation-imp-total-2"/>
            <instantiatesReference>
               <reference value="ObservationDefinition/Degradation"/>
            </instantiatesReference>
            <status value="final"/>
            <code>
               <coding>
                  <system value="http://dummy.loinc.org"/>
                  <code value="DGP"/>
                  <display value="Degradation Products"/>
               </coding>
               <text value="Degradation Products"/>
            </code>
            <subject>
               <reference value="Medication/medication-actual-batch-2"/>
            </subject>
            <valueQuantity>
               <value value="0.7"/>
               <unit value="% w/w"/>

               <system value="http://dummy.unitsofmeasure.org"/>
               <code value="% {w/w}"/>
            </valueQuantity>
            <component>
               <code>
                  <coding>
                     <system value="http://dummy.loinc.org"/>
                     <code value="IMP"/>
                     <display value="Impurity"/>
                  </coding>
               </code>
               <valueCodeableConcept>
                  <!-- could have the code of an impurity substance, or could have an extension to point to it as a resource -->
                  <text value="Total degradation products"/>
               </valueCodeableConcept>
            </component>
         </Observation>
      </resource>
   </entry>
   <entry>
      <fullUrl value="https://www.example.org/Observation/observationDegradation-imp-total-3"/>
      <resource>
         <Observation>
            <id value="observationDegradation-imp-total-3"/>
            <instantiatesReference>
               <reference value="ObservationDefinition/Degradation"/>
            </instantiatesReference>
            <status value="final"/>
            <code>
               <coding>
                  <system value="http://dummy.loinc.org"/>
                  <code value="DGP"/>
                  <display value="Degradation Products"/>
               </coding>
               <text value="Degradation Products"/>
            </code>
            <subject>
               <reference value="Medication/medication-actual-batch-3"/>
            </subject>
            <valueQuantity>
               <value value="0.6"/>
               <unit value="% w/w"/>

               <system value="http://dummy.unitsofmeasure.org"/>
               <code value="% {w/w}"/>
            </valueQuantity>
            <component>
               <code>
                  <coding>
                     <system value="http://dummy.loinc.org"/>
                     <code value="IMP"/>
                     <display value="Impurity"/>
                  </coding>
               </code>
               <valueCodeableConcept>
                  <!-- could have the code of an impurity substance, or could have an extension to point to it as a resource -->
                  <text value="Total degradation products"/>
               </valueCodeableConcept>
            </component>
         </Observation>
      </resource>
   </entry>
   <entry>
      <fullUrl value="https://www.example.org/Observation/observationDissolution"/>
      <resource>
         <Observation>
            <id value="observationDissolution"/>
            <instantiatesReference>
               <reference value="ObservationDefinition/Dissolution"/>
            </instantiatesReference>
            <status value="final"/>
            <code>
               <coding>
                  <system value="http://dummy.loinc.org"/>
                  <code value="ZZZ"/>
                  <display value="Dissolution"/>
               </coding>
               <text value="Dissolution"/>
            </code>
            <subject>
               <reference value="Medication/medication-actual-batch"/>
            </subject>
            <valueCodeableConcept>
               <text value="Complies"/>
            </valueCodeableConcept>
         </Observation>
      </resource>
   </entry>
   <entry>
      <fullUrl value="https://www.example.org/Observation/observationDissolution2"/>
      <resource>
         <Observation>
            <id value="observationDissolution2"/>
            <instantiatesReference>
               <reference value="ObservationDefinition/Dissolution"/>
            </instantiatesReference>
            <status value="final"/>
            <code>
               <coding>
                  <system value="http://dummy.loinc.org"/>
                  <code value="ZZZ"/>
                  <display value="Dissolution"/>
               </coding>
               <text value="Dissolution"/>
            </code>
            <subject>
               <reference value="Medication/medication-actual-batch-2"/>
            </subject>
            <valueCodeableConcept>
               <text value="Complies"/>
            </valueCodeableConcept>
         </Observation>
      </resource>
   </entry>
   <entry>
      <fullUrl value="https://www.example.org/Observation/observationDissolution3"/>
      <resource>
         <Observation>
            <id value="observationDissolution3"/>
            <instantiatesReference>
               <reference value="ObservationDefinition/Dissolution"/>
            </instantiatesReference>
            <status value="final"/>
            <code>
               <coding>
                  <system value="http://dummy.loinc.org"/>
                  <code value="ZZZ"/>
                  <display value="Dissolution"/>
               </coding>
               <text value="Dissolution"/>
            </code>
            <subject>
               <reference value="Medication/medication-actual-batch-3"/>
            </subject>
            <valueCodeableConcept>
               <text value="Complies"/>
            </valueCodeableConcept>
         </Observation>
      </resource>
   </entry>
   <entry>
      <fullUrl value="https://www.example.org/Observation/observationDissolutionQ80"/>
      <resource>
         <Observation>
            <id value="observationDissolutionQ80"/>
            <instantiatesReference>
               <reference value="ObservationDefinition/DissolutionQ80"/>
            </instantiatesReference>
            <status value="final"/>
            <code>
               <coding>
                  <system value="http://dummy.loinc.org"/>
                  <code value="ZZZX"/>
                  <display value="DissolutionQ"/>
               </coding>
            </code>
            <subject>
               <reference value="Medication/medication-actual-batch"/>
            </subject>
            <valueQuantity>
               <value value="90"/>
               <unit value="%"/>
               <system value="http://dummy.unitsofmeasure.org"/>
               <code value="%"/>
            </valueQuantity>
         </Observation>
      </resource>
   </entry>
   <entry>
      <fullUrl value="https://www.example.org/Observation/observationDissolutionQ802"/>
      <resource>
         <Observation>
            <id value="observationDissolutionQ802"/>
            <instantiatesReference>
               <reference value="ObservationDefinition/DissolutionQ80"/>
            </instantiatesReference>
            <status value="final"/>
            <code>
               <coding>
                  <system value="http://dummy.loinc.org"/>
                  <code value="ZZZX"/>
                  <display value="DissolutionQ"/>
               </coding>
            </code>
            <subject>
               <reference value="Medication/medication-actual-batch-2"/>
            </subject>
            <valueQuantity>
               <value value="92"/>
               <unit value="%"/>
               <system value="http://dummy.unitsofmeasure.org"/>
               <code value="%"/>
            </valueQuantity>
         </Observation>
      </resource>
   </entry>
   <entry>
      <fullUrl value="https://www.example.org/Observation/observationDissolutionQ803"/>
      <resource>
         <Observation>
            <id value="observationDissolutionQ803"/>
            <instantiatesReference>
               <reference value="ObservationDefinition/DissolutionQ80"/>
            </instantiatesReference>
            <status value="final"/>
            <code>
               <coding>
                  <system value="http://dummy.loinc.org"/>
                  <code value="ZZZX"/>
                  <display value="DissolutionQ"/>
               </coding>
            </code>
            <subject>
               <reference value="Medication/medication-actual-batch-3"/>
            </subject>
            <valueQuantity>
               <value value="95"/>
               <unit value="%"/>
               <system value="http://dummy.unitsofmeasure.org"/>
               <code value="%"/>
            </valueQuantity>
         </Observation>
      </resource>
   </entry>
   <entry>
      <fullUrl value="https://www.example.org/Observation/observationUniformity"/>
      <resource>
         <Observation>
            <id value="observationUniformity"/>
            <instantiatesReference>
               <reference value="ObservationDefinition/Uniformity"/>
            </instantiatesReference>
            <status value="final"/>
            <code>
               <coding>
                  <system value="http://dummy.loinc.org"/>
                  <code value="ZZZ"/>
                  <display value="uniformity of dosage units (by weight)"/>
               </coding>
               <text value="uniformity of dosage units (by weight)"/>
            </code>
            <subject>
               <reference value="Medication/medication-actual-batch"/>
            </subject>
            <valueCodeableConcept>
               <text value="Complies"/>
            </valueCodeableConcept>
         </Observation>
      </resource>
   </entry>
   <entry>
      <fullUrl value="https://www.example.org/Observation/observationUniformity2"/>
      <resource>
         <Observation>
            <id value="observationUniformity2"/>
            <instantiatesReference>
               <reference value="ObservationDefinition/Uniformity"/>
            </instantiatesReference>
            <status value="final"/>
            <code>
               <coding>
                  <system value="http://dummy.loinc.org"/>
                  <code value="ZZZ"/>
                  <display value="uniformity of dosage units (by weight)"/>
               </coding>
               <text value="uniformity of dosage units (by weight)"/>
            </code>
            <subject>
               <reference value="Medication/medication-actual-batch-2"/>
            </subject>
            <valueCodeableConcept>
               <text value="Complies"/>
            </valueCodeableConcept>
         </Observation>
      </resource>
   </entry>
   <entry>
      <fullUrl value="https://www.example.org/Observation/observationUniformity3"/>
      <resource>
         <Observation>
            <id value="observationUniformity3"/>
            <instantiatesReference>
               <reference value="ObservationDefinition/Uniformity"/>
            </instantiatesReference>
            <status value="final"/>
            <code>
               <coding>
                  <system value="http://dummy.loinc.org"/>
                  <code value="ZZZ"/>
                  <display value="uniformity of dosage units (by weight)"/>
               </coding>
               <text value="uniformity of dosage units (by weight)"/>
            </code>
            <subject>
               <reference value="Medication/medication-actual-batch-3"/>
            </subject>
            <valueCodeableConcept>
               <text value="Complies"/>
            </valueCodeableConcept>
         </Observation>
      </resource>
   </entry>
   <entry>
      <fullUrl value="https://www.example.org/Observation/observationMicro"/>
      <resource>
         <Observation>
            <id value="observationMicro"/>
            <instantiatesReference>
               <reference value="ObservationDefinition/Microbiological"/>
            </instantiatesReference>
            <status value="final"/>
            <code>
               <coding>
                  <system value="http://dummy.loinc.org"/>
                  <code value="YYY"/>
                  <display value="Microbiological Quality"/>
               </coding>
               <text value="Microbiological Quality"/>
            </code>
            <subject>
               <reference value="Medication/medication-actual-batch"/>
            </subject>
            <valueCodeableConcept>
               <text value="Complies"/>
            </valueCodeableConcept>
         </Observation>
      </resource>
   </entry>
   <entry>
      <fullUrl value="https://www.example.org/Observation/observationMicro2"/>
      <resource>
         <Observation>
            <id value="observationMicro2"/>
            <instantiatesReference>
               <reference value="ObservationDefinition/Microbiological"/>
            </instantiatesReference>
            <status value="final"/>
            <code>
               <coding>
                  <system value="http://dummy.loinc.org"/>
                  <code value="YYY"/>
                  <display value="Microbiological Quality"/>
               </coding>
               <text value="Microbiological Quality"/>
            </code>
            <subject>
               <reference value="Medication/medication-actual-batch-2"/>
            </subject>
            <valueCodeableConcept>
               <text value="Complies"/>
            </valueCodeableConcept>
         </Observation>
      </resource>
   </entry>
   <entry>
      <fullUrl value="https://www.example.org/Observation/observationMicro3"/>
      <resource>
         <Observation>
            <id value="observationMicro3"/>
            <instantiatesReference>
               <reference value="ObservationDefinition/Microbiological"/>
            </instantiatesReference>
            <status value="final"/>
            <code>
               <coding>
                  <system value="http://dummy.loinc.org"/>
                  <code value="YYY"/>
                  <display value="Microbiological Quality"/>
               </coding>
               <text value="Microbiological Quality"/>
            </code>
            <subject>
               <reference value="Medication/medication-actual-batch-3"/>
            </subject>
            <valueCodeableConcept>
               <text value="Complies"/>
            </valueCodeableConcept>
         </Observation>
      </resource>
   </entry>
   <entry>
      <fullUrl value="https://www.example.org/Observation/observationWater"/>
      <resource>
         <Observation>
            <id value="observationWater"/>
            <instantiatesReference>
               <reference value="ObservationDefinition/Water"/>
            </instantiatesReference>
            <status value="final"/>
            <code>
               <coding>
                  <system value="http://dummy.loinc.org"/>
                  <code value="XXX"/>
                  <display value="Water Content"/>
               </coding>
               <text value="Water Content"/>
            </code>
            <subject>
               <reference value="Medication/medication-actual-batch"/>
            </subject>
            <valueQuantity>
               <value value="0.5"/>
               <unit value="% w/w"/>
               <system value="http://dummy.unitsofmeasure.org"/>
               <code value="% {w/w}"/>
            </valueQuantity>
         </Observation>
      </resource>
   </entry>
   <entry>
      <fullUrl value="https://www.example.org/Observation/observationWater2"/>
      <resource>
         <Observation>
            <id value="observationWater2"/>
            <instantiatesReference>
               <reference value="ObservationDefinition/Water"/>
            </instantiatesReference>
            <status value="final"/>
            <code>
               <coding>
                  <system value="http://dummy.loinc.org"/>
                  <code value="XXX"/>
                  <display value="Water Content"/>
               </coding>
               <text value="Water Content"/>
            </code>
            <subject>
               <reference value="Medication/medication-actual-batch-2"/>
            </subject>
            <valueQuantity>
               <value value="0.5"/>
               <unit value="% w/w"/>
               <system value="http://dummy.unitsofmeasure.org"/>
               <code value="% {w/w}"/>
            </valueQuantity>
         </Observation>
      </resource>
   </entry>
   <entry>
      <fullUrl value="https://www.example.org/Observation/observationWater3"/>
      <resource>
         <Observation>
            <id value="observationWater3"/>
            <instantiatesReference>
               <reference value="ObservationDefinition/Water"/>
            </instantiatesReference>
            <status value="final"/>
            <code>
               <coding>
                  <system value="http://dummy.loinc.org"/>
                  <code value="XXX"/>
                  <display value="Water Content"/>
               </coding>
               <text value="Water Content"/>
            </code>
            <subject>
               <reference value="Medication/medication-actual-batch-3"/>
            </subject>
            <valueQuantity>
               <value value="0.5"/>
               <unit value="% w/w"/>
               <system value="http://dummy.unitsofmeasure.org"/>
               <code value="% {w/w}"/>
            </valueQuantity>
         </Observation>
      </resource>
   </entry>
   <!-- MedicinalProductDefinition - the main resource in any product scenario -->
   <entry>
      <fullUrl value="https://www.example.org/MedicinalProductDefinition/product"/>
      <!--      <fullUrl value="urn:uuid:a0694a7a-aafa-4cbe-8135-c788a9a4d3d5"/>-->
      <resource>
         <!-- Section 1.1 - DP Identification -->
         <MedicinalProductDefinition>
            <id value="product"/>
            <description value="Textual description of the product"/>
            <combinedPharmaceuticalDoseForm>
               <coding>
                  <system value="https://spor.ema.europa.eu/v1/lists/200000000004"/>
                  <code value="100000073667"/>
                  <display value="Gastro-resistant tablet"/>
               </coding>
            </combinedPharmaceuticalDoseForm>
            <route>
               <coding>
                  <system value="https://spor.ema.europa.eu/v1/lists/100000073345"/>
                  <code value="100000073619"/>
                  <display value="Oral use"/>
               </coding>
            </route>
            <name>
               <productName value="Stelbat Tablets, 20mg"/>
               <type>
                  <coding>
                     <system value="http://example.org/fhir/code/productNameType"/>
                     <code value="1234"/>
                     <display value="Proprietary"/>
                  </coding>
               </type>
               <part>
                  <part value="20mg"/>
                  <type>
                     <coding>
                        <system value="http://hl7.org/fhir/medicinal-product-name-part-type"/>
                        <code value="StrengthPart"/>
                        <display value="Strength part"/>
                     </coding>
                  </type>
               </part>
            </name>
         </MedicinalProductDefinition>
      </resource>
   </entry>
   <entry>
      <fullUrl value="https://www.example.org/Ingredient/productIngredient"/>
      <!--      <fullUrl value="urn:uuid:a0694a7a-aafa-4cbe-8135-c788a9a4d3d5"/>-->
      <resource>
         <Ingredient>
            <id value="productIngredient"/>
            <status value="active"/>
            <for>
               <reference value="MedicinalProductDefinition/product"/>
            </for>
            <role>
               <coding>
                  <system value="http://hl7.org/fhir/ingredient-role"/>
                  <code value="100000072072"/>
                  <display value="Active"/>
               </coding>
            </role>
            <substance>
               <code>
                  <reference>
                     <reference value="SubstanceDefinition/substance1"/>
                  </reference>
               </code>
            </substance>
         </Ingredient>
      </resource>
   </entry>
   <entry>
      <fullUrl value="https://www.example.org/SubstanceDefinition/substance1"/>
      <resource>
         <SubstanceDefinition>
            <id value="substance1"/>
            <manufacturer>
               <reference value="Organization/substance-manufacturer"/>
            </manufacturer>
            <name>
               <name value="Stelbatolol"/>
               <!-- #4 -->
            </name>
         </SubstanceDefinition>
      </resource>
   </entry>
   <entry>
      <fullUrl value="https://www.example.org/Organization/substance-manufacturer"/>
      <resource>
         <Organization>
            <id value="substance-manufacturer"/>
            <identifier>
               <!-- FDA establishment identifier -->
               <system value="urn:oid:2.16.840.1.113883.4.82"/>
               <value value="3003040516"/>
            </identifier>
            <name value="AAA Molybdenum Products, Inc."/>
            <contact>
               <address>
                  <line value="7233 W 116th Pl"/>
                  <line value="Ste C"/>
                  <city value="Broomfield"/>
                  <state value="Colorado"/>
                  <postalCode value="80020"/>
                  <country value="USA"/>
               </address>
            </contact>
         </Organization>
      </resource>
   </entry>
   <!-- Section 5 - Manufacturing Process -->
   <entry>
      <fullUrl value="https://www.example.org/PlanDefinition/manufacturingProcess"/>
      <resource>
         <PlanDefinition>
            <id value="manufacturingProcess"/>
            <meta>
               <profile
                  value="http://hl7.org/fhir/uv/dx-pq/StructureDefinition/PlanDefinition-mnf-process-dxpq"/>
               <!--               <profile value="https://build.fhir.org/ig/HL7/uv-dx-pq/StructureDefinition-PlanDefinition-mnf-process-dxpq.html"/>-->
            </meta>
            <!--     Included Extension-history-of-process-dxpq to differential from PlanDefinition-drug-specification-dxpq-->
            <extension url="http://hl7.org/fhir/uv/dx-pq/StructureDefinition/Extension-history-of-process-dxpq">
               <valueMarkdown value="Process has no history recorded yet"/>
            </extension>
            <!-- abridged version only -->
            <title value="Process 1.0"/>
            <type>
               <coding>
                  <system value="http://example.org/fhir/code/planType"/>
                  <code value="1244566"/>
                  <display value="Manufacturing Process"/>
               </coding>
            </type>
            <status value="active"/>
            <subjectCanonical value="https://www.example.org/MedicinalProductDefinition/product"/>
            <!--            <subjectCanonical value="MedicinalProductDefinition/product"/>-->
            <!--Canonical URLs must be absolute URLs if they are not fragment references (MedicinalProductDefinition/product)-->
            <!-- #83 -->
         </PlanDefinition>
      </resource>
   </entry>
</Bundle>
