<?xml version="1.0" encoding="UTF-8"?>
<Bundle xmlns="http://hl7.org/fhir">
    <!-- Substance Impurities -->
   <id value="bundle-product-impurities-pq-ex2-sub"/>
   <meta>
      <profile value="http://hl7.org/fhir/uv/pharm-quality/StructureDefinition/Bundle-product-impurities-pq"/>
   </meta>
   <type value="collection"/>
   <entry>
      <fullUrl value="urn:uuid:03d68d1c-162c-8b6e-70f9-647b0ea97adb"/>
      <resource>
         <SubstanceDefinition>
            <id value="substance1"/>
            <manufacturer>
        			<!--Organization/substance-manufacturer-->
               <reference value="Organization/062bf235-44e2-55c4-9213-bbe5e12d5620"/>
            </manufacturer>
            <name>
               <name value="Stelbatolol"/>
            </name>
            <relationship>
               <extension url="http://hl7.org/fhir/uv/pharm-quality/StructureDefinition/Extension-impurity-origin-pq">
                  <valueCodeableConcept>
                     <coding>
                        <system value="http://hl7.org/fhir/uv/pharm-quality/CodeSystem/cs-impurity-origin-local-pq"/>
                        <code value="enantiomer"/>
                        <display value="Enantiomer"/>
                     </coding>
                     <text value="Enantiomer of API SM"/>
                  </valueCodeableConcept>
               </extension>
               <substanceDefinitionReference>
        	            <!--SubstanceDefinition/impurityEnantiomer-->
                  <reference value="SubstanceDefinition/03d68d1c-162c-8b6e-80f9-647b0ea97ad1"/>
               </substanceDefinitionReference>
               <type>
        	        	<!-- two codes here, one is more specialised than the other -->
                  <coding>
                     <system value="http://hl7.org/fhir/substance-relationship-type"/>
                     <code value="Impurity"/>
                     <display value="Impurity Of"/>
                  </coding>
                  <coding>
                     <system value="http://hl7.org/fhir/uv/pharm-quality/CodeSystem/cs-impurity-type-local-pq"/>
                     <code value="CH-IMP"/>
                     <display value="Chiral Impurity"/>
                  </coding>
               </type>
               <amountString value="ND"/>
            </relationship>
            <relationship>
               <extension url="http://hl7.org/fhir/uv/pharm-quality/StructureDefinition/Extension-impurity-origin-pq">
                  <valueCodeableConcept>
                     <coding>
                        <system value="http://hl7.org/fhir/uv/pharm-quality/CodeSystem/cs-impurity-origin-local-pq"/>
                        <code value="process"/>
                        <display value="Process Impurity"/>
                     </coding>
                     <text value="Step 1a Process Impurity"/>
                  </valueCodeableConcept>
               </extension>
               <substanceDefinitionReference>
        	            <!--SubstanceDefinition/impurity1-->
                  <reference value="SubstanceDefinition/03d68d1c-162c-8b6e-80f9-647b0ea97ad2"/>
               </substanceDefinitionReference>
               <type>
                  <coding>
                     <system value="http://hl7.org/fhir/substance-relationship-type"/>
                     <code value="Impurity"/>
                     <display value="Impurity Of"/>
                  </coding>
                  <coding>
                     <system value="http://hl7.org/fhir/uv/pharm-quality/CodeSystem/cs-impurity-type-local-pq"/>
                     <code value="PR-IMP"/>
                     <display value="Process impurity"/>
                  </coding>
               </type>
               <amountString value="Range: ND-0.2%"/>
            </relationship>
            <relationship>
               <extension url="http://hl7.org/fhir/uv/pharm-quality/StructureDefinition/Extension-impurity-origin-pq">
                  <valueCodeableConcept>
                     <coding>
                        <system value="http://hl7.org/fhir/uv/pharm-quality/CodeSystem/cs-impurity-origin-local-pq"/>
                        <code value="process"/>
                        <display value="Process Impurity"/>
                     </coding>
                     <text value="Step 1a Process Impurity"/>
                  </valueCodeableConcept>
               </extension>
               <substanceDefinitionReference>
        	            <!--SubstanceDefinition/impurity2-->
                  <reference value="SubstanceDefinition/03d68d1c-162c-8b6e-80f9-647b0ea97ad9"/>
               </substanceDefinitionReference>
               <type>
                  <coding>
                     <system value="http://hl7.org/fhir/substance-relationship-type"/>
                     <code value="Impurity"/>
                     <display value="Impurity Of"/>
                  </coding>
                  <coding>
                     <system value="http://hl7.org/fhir/uv/pharm-quality/CodeSystem/cs-impurity-type-local-pq"/>
                     <code value="PR-IMP"/>
                     <display value="Process impurity"/>
                  </coding>
               </type>
               <amountString value="Range: ND–0.3%"/>
            </relationship>
            <relationship>
               <extension url="http://hl7.org/fhir/uv/pharm-quality/StructureDefinition/Extension-impurity-origin-pq">
                  <valueCodeableConcept>
                     <coding>
                        <system value="http://hl7.org/fhir/uv/pharm-quality/CodeSystem/cs-impurity-origin-local-pq"/>
                        <code value="starting-material"/>
                        <display value="Starting Material"/>
                     </coding>
                     <text value="API Starting Material"/>
                  </valueCodeableConcept>
               </extension>
               <substanceDefinitionReference>
        	            <!--SubstanceDefinition/impurityNapthol-->
                  <reference value="SubstanceDefinition/03d68d1c-162c-8b6e-80f9-647b0ea97ad3"/>
               </substanceDefinitionReference>
               <type>
                  <coding>
                     <system value="http://hl7.org/fhir/substance-relationship-type"/>
                     <code value="Impurity"/>
                     <display value="Impurity Of"/>
                  </coding>
                  <coding>
                     <system value="http://hl7.org/fhir/uv/pharm-quality/CodeSystem/cs-impurity-type-local-pq"/>
                     <code value="ST-IMP"/>
                     <display value="Starting material, forced degradation product"/>
                  </coding>
               </type>
               <amountString value="Observed only during stress studies"/>
            </relationship>
            <relationship>
               <extension url="http://hl7.org/fhir/uv/pharm-quality/StructureDefinition/Extension-impurity-origin-pq">
                  <valueCodeableConcept>
                     <coding>
                        <system value="http://hl7.org/fhir/uv/pharm-quality/CodeSystem/cs-impurity-origin-local-pq"/>
                        <code value="intermediate-material"/>
                        <display value="Intermediate Material"/>
                     </coding>
                     <text value="API Process Intermediate"/>
                  </valueCodeableConcept>
               </extension>
               <substanceDefinitionReference>
        	            <!--SubstanceDefinition/impurityPropanol-->
                  <reference value="SubstanceDefinition/03d68d1c-162c-8b6e-80f9-647b0ea97ad4"/>
               </substanceDefinitionReference>
               <type>
                  <coding>
                     <system value="http://hl7.org/fhir/substance-relationship-type"/>
                     <code value="Impurity"/>
                     <display value="Impurity Of"/>
                  </coding>
                  <coding>
                     <system value="http://hl7.org/fhir/uv/pharm-quality/CodeSystem/cs-impurity-type-local-pq"/>
                     <code value="INT-IMP"/>
                     <display value="Process intermediate, forced degradation product"/>
                  </coding>
               </type>
               <amountString value="Observed only during stress studies"/>
            </relationship>
         </SubstanceDefinition>
      </resource>
   </entry>
   <entry>
      <fullUrl value="urn:uuid:03d68d1c-162c-8b6e-80f9-647b0ea97ad1"/>
      <resource>
         <SubstanceDefinition>
                <!--impurityEnantiomer-->
            <id value="03d68d1c-162c-8b6e-80f9-647b0ea97ad1"/>
            <characterization>
               <technique>
                  <text value="Enantiomeric purity by LC"/>
               </technique>
            </characterization>
            <characterization>
               <technique>
                  <text value="Mass spectrometry"/>
               </technique>
            </characterization>
            <property>
               <type>
                  <coding>
                     <system value="http://hl7.org/fhir/uv/pharm-quality/CodeSystem/cs-mutagenicityClassificationType-local-pq"/>
                     <code value="1233444"/>
                     <display value="Rule-based (Q)Sar"/>
                  </coding>
               </type>
               <valueCodeableConcept>
                  <coding>
                     <system value="http://hl7.org/fhir/uv/pharm-quality/CodeSystem/cs-substance-property-value-local-pq"/>
                     <code value="negative"/>
                     <display value="Negative"/>
                  </coding>
               </valueCodeableConcept>
            </property>
            <property>
               <type>
                  <coding>
                     <system value="http://hl7.org/fhir/uv/pharm-quality/CodeSystem/cs-mutagenicityClassificationType-local-pq"/>
                     <code value="123555"/>
                     <display value="Statistical (Q)Sar"/>
                  </coding>
               </type>
               <valueCodeableConcept>
                  <coding>
                     <system value="http://hl7.org/fhir/uv/pharm-quality/CodeSystem/cs-substance-property-value-local-pq"/>
                     <code value="negative"/>
                     <display value="Negative"/>
                  </coding>
               </valueCodeableConcept>
            </property>
            <property>
               <type>
                  <coding>
                     <system value="http://hl7.org/fhir/uv/pharm-quality/CodeSystem/cs-mutagenicityClassificationType-local-pq"/>
                     <code value="123556"/>
                     <display value="ICH M7 Classification"/>
                  </coding>
               </type>
               <valueCodeableConcept>
                  <coding>
                     <system value="http://hl7.org/fhir/uv/pharm-quality/CodeSystem/cs-substance-property-value-local-pq"/>
                     <code value="class-5"/>
                     <display value="Class 5"/>
                  </coding>
               </valueCodeableConcept>
            </property>
            <property>
               <type>
                  <coding>
                     <system value="http://hl7.org/fhir/uv/pharm-quality/CodeSystem/cs-mutagenicityClassificationType-local-pq"/>
                     <code value="123557"/>
                     <display value="Mutagenicity Comment"/>
                  </coding>
               </type>
               <valueCodeableConcept>
                  <text value="Treated as non-mutagenic due to lack of alerting structure"/>
               </valueCodeableConcept>
            </property>
            <molecularWeight>
               <amount>
                  <value value="295.80"/>
                  <unit value="g/mole"/>
                  <system value="http://unitsofmeasure.org"/>
                  <code value="g/mol"/>
               </amount>
            </molecularWeight>
            <structure>
               <representation>
                  <document>
                            <!--DocumentReference/impurityEnantiomerdoc-->
                     <reference value="DocumentReference/13d68d1c-162c-8b6e-80f9-647b0ea97ad1"/>
                  </document>
               </representation>
            </structure>
            <name>
               <name value="R-enantiomer of stelbatalol"/>
            </name>
         </SubstanceDefinition>
      </resource>
   </entry>
   <entry>
      <fullUrl value="urn:uuid:13d68d1c-162c-8b6e-80f9-647b0ea97ad1"/>
      <resource>
         <DocumentReference>
                <!--impurityEnantiomerdoc-->
            <id value="13d68d1c-162c-8b6e-80f9-647b0ea97ad1"/>
            <status value="current"/>
            <content>
               <attachment>
                  <contentType value="image/x-png"/>
                  <data value=""/>
               </attachment>
            </content>
         </DocumentReference>
      </resource>
   </entry>
   <entry>
      <fullUrl value="urn:uuid:03d68d1c-162c-8b6e-80f9-647b0ea97ad2"/>
      <resource>
         <SubstanceDefinition>
                <!--impurity1-->
            <id value="03d68d1c-162c-8b6e-80f9-647b0ea97ad2"/>
            <characterization>
               <technique>
                  <text value="Organic impurities by HPLC"/>
               </technique>
            </characterization>
            <property>
               <type>
                  <coding>
                     <system value="http://hl7.org/fhir/uv/pharm-quality/CodeSystem/cs-mutagenicityClassificationType-local-pq"/>
                     <code value="1233444"/>
                     <display value="Rule-based (Q)Sar"/>
                  </coding>
               </type>
               <valueCodeableConcept>
                  <coding>
                     <system value="http://hl7.org/fhir/uv/pharm-quality/CodeSystem/cs-substance-property-value-local-pq"/>
                     <code value="negative"/>
                     <display value="Negative"/>
                  </coding>
               </valueCodeableConcept>
            </property>
            <property>
               <type>
                  <coding>
                     <system value="http://hl7.org/fhir/uv/pharm-quality/CodeSystem/cs-mutagenicityClassificationType-local-pq"/>
                     <code value="123555"/>
                     <display value="Statistical (Q)Sar"/>
                  </coding>
               </type>
               <valueCodeableConcept>
                  <coding>
                     <system value="http://hl7.org/fhir/uv/pharm-quality/CodeSystem/cs-substance-property-value-local-pq"/>
                     <code value="negative"/>
                     <display value="Negative"/>
                  </coding>
               </valueCodeableConcept>
            </property>
            <property>
               <type>
                  <coding>
                     <system value="http://hl7.org/fhir/uv/pharm-quality/CodeSystem/cs-mutagenicityClassificationType-local-pq"/>
                     <code value="123556"/>
                     <display value="ICH M7 Classification"/>
                  </coding>
               </type>
               <valueCodeableConcept>
                  <coding>
                     <system value="http://hl7.org/fhir/uv/pharm-quality/CodeSystem/cs-substance-property-value-local-pq"/>
                     <code value="class-5"/>
                     <display value="Class 5"/>
                  </coding>
               </valueCodeableConcept>
            </property>
            <property>
               <type>
                  <coding>
                     <system value="http://hl7.org/fhir/uv/pharm-quality/CodeSystem/cs-mutagenicityClassificationType-local-pq"/>
                     <code value="123557"/>
                     <display value="Mutagenicity Comment"/>
                  </coding>
               </type>
               <valueCodeableConcept>
                  <text value="Treated as non-mutagenic due to lack of alerting structure"/>
               </valueCodeableConcept>
            </property>
            <molecularWeight>
               <amount>
                  <value value="344.4"/>
                  <unit value="g/mole"/>
                  <system value="http://unitsofmeasure.org"/>
                  <code value="g/mol"/>
               </amount>
            </molecularWeight>
            <structure>
               <representation>
                  <document>
                            <!--DocumentReference/impurity1doc-->
                     <reference value="DocumentReference/13d68d1c-162c-8b6e-80f9-647b0ea97ad2"/>
                  </document>
               </representation>
            </structure>
            <name>
               <name value="Impurity 1"/>
            </name>
         </SubstanceDefinition>
      </resource>
   </entry>
   <entry>
      <fullUrl value="urn:uuid:13d68d1c-162c-8b6e-80f9-647b0ea97ad2"/>
      <resource>
         <DocumentReference>
                <!--impurity1doc-->
            <id value="13d68d1c-162c-8b6e-80f9-647b0ea97ad2"/>
            <status value="current"/>
            <content>
               <attachment>
                  <contentType value="image/x-png"/>
                  <data value=""/>
               </attachment>
            </content>
         </DocumentReference>
      </resource>
   </entry>
   <entry>
      <fullUrl value="urn:uuid:03d68d1c-162c-8b6e-80f9-647b0ea97ad9"/>
      <resource>
         <SubstanceDefinition>
                <!--impurity2-->
            <id value="03d68d1c-162c-8b6e-80f9-647b0ea97ad9"/>
            <characterization>
               <technique>
                  <text value="Organic impurities by LC"/>
               </technique>
            </characterization>
            <property>
               <type>
                  <coding>
                     <system value="http://hl7.org/fhir/uv/pharm-quality/CodeSystem/cs-mutagenicityClassificationType-local-pq"/>
                     <code value="1233444"/>
                     <display value="Rule-based (Q)Sar"/>
                  </coding>
               </type>
               <valueCodeableConcept>
                  <coding>
                     <system value="http://hl7.org/fhir/uv/pharm-quality/CodeSystem/cs-substance-property-value-local-pq"/>
                     <code value="negative"/>
                     <display value="Negative"/>
                  </coding>
               </valueCodeableConcept>
            </property>
            <property>
               <type>
                  <coding>
                     <system value="http://hl7.org/fhir/uv/pharm-quality/CodeSystem/cs-mutagenicityClassificationType-local-pq"/>
                     <code value="123555"/>
                     <display value="Statistical (Q)Sar"/>
                  </coding>
               </type>
               <valueCodeableConcept>
                  <coding>
                     <system value="http://hl7.org/fhir/uv/pharm-quality/CodeSystem/cs-substance-property-value-local-pq"/>
                     <code value="negative"/>
                     <display value="Negative"/>
                  </coding>
               </valueCodeableConcept>
            </property>
            <property>
               <type>
                  <coding>
                     <system value="http://hl7.org/fhir/uv/pharm-quality/CodeSystem/cs-mutagenicityClassificationType-local-pq"/>
                     <code value="123556"/>
                     <display value="ICH M7 Classification"/>
                  </coding>
               </type>
               <valueCodeableConcept>
                  <coding>
                     <system value="http://hl7.org/fhir/uv/pharm-quality/CodeSystem/cs-substance-property-value-local-pq"/>
                     <code value="class-5"/>
                     <display value="Class 5"/>
                  </coding>
               </valueCodeableConcept>
            </property>
            <property>
               <type>
                  <coding>
                     <system value="http://hl7.org/fhir/uv/pharm-quality/CodeSystem/cs-mutagenicityClassificationType-local-pq"/>
                     <code value="123557"/>
                     <display value="Mutagenicity Comment"/>
                  </coding>
               </type>
               <valueCodeableConcept>
                  <text value="Treated as non-mutagenic due to lack of alerting structure"/>
               </valueCodeableConcept>
            </property>
            <molecularWeight>
               <amount>
                  <value value="459.58"/>
                  <unit value="g/mole"/>
                  <system value="http://unitsofmeasure.org"/>
                  <code value="g/mol"/>
               </amount>
            </molecularWeight>
            <structure>
               <representation>
                  <document>
                            <!--DocumentReference/impurity2doc-->
                     <reference value="DocumentReference/13d68d1c-162c-8b6e-80f9-647b0ea97ad9"/>
                  </document>
               </representation>
            </structure>
            <name>
               <name value="Impurity 2"/>
            </name>
         </SubstanceDefinition>
      </resource>
   </entry>
   <entry>
      <fullUrl value="urn:uuid:13d68d1c-162c-8b6e-80f9-647b0ea97ad9"/>
      <resource>
         <DocumentReference>
                <!--impurity2doc-->
            <id value="13d68d1c-162c-8b6e-80f9-647b0ea97ad9"/>
            <status value="current"/>
            <content>
               <attachment>
                  <contentType value="image/x-png"/>
                  <data value=""/>
               </attachment>
            </content>
         </DocumentReference>
      </resource>
   </entry>
   <entry>
      <fullUrl value="urn:uuid:03d68d1c-162c-8b6e-80f9-647b0ea97ad3"/>
      <resource>
         <SubstanceDefinition>
                <!--impurityNapthol-->
            <id value="03d68d1c-162c-8b6e-80f9-647b0ea97ad3"/>
            <characterization>
               <technique>
                  <text value="Organic impurities by HPLC"/>
               </technique>
            </characterization>
            <characterization>
               <technique>
                  <text value="Chromatographic retention"/>
               </technique>
            </characterization>
            <property>
               <type>
                  <coding>
                     <system value="http://hl7.org/fhir/uv/pharm-quality/CodeSystem/cs-mutagenicityClassificationType-local-pq"/>
                     <code value="1233444"/>
                     <display value="Rule-based (Q)Sar"/>
                  </coding>
               </type>
               <valueCodeableConcept>
                  <coding>
                     <system value="http://hl7.org/fhir/uv/pharm-quality/CodeSystem/cs-substance-property-value-local-pq"/>
                     <code value="negative"/>
                     <display value="Negative"/>
                  </coding>
               </valueCodeableConcept>
            </property>
            <property>
               <type>
                  <coding>
                     <system value="http://hl7.org/fhir/uv/pharm-quality/CodeSystem/cs-mutagenicityClassificationType-local-pq"/>
                     <code value="123555"/>
                     <display value="Statistical (Q)Sar"/>
                  </coding>
               </type>
               <valueCodeableConcept>
                  <coding>
                     <system value="http://hl7.org/fhir/uv/pharm-quality/CodeSystem/cs-substance-property-value-local-pq"/>
                     <code value="negative"/>
                     <display value="Negative"/>
                  </coding>
               </valueCodeableConcept>
            </property>
            <property>
               <type>
                  <coding>
                     <system value="http://hl7.org/fhir/uv/pharm-quality/CodeSystem/cs-mutagenicityClassificationType-local-pq"/>
                     <code value="123556"/>
                     <display value="ICH M7 Classification"/>
                  </coding>
               </type>
               <valueCodeableConcept>
                  <coding>
                     <system value="http://hl7.org/fhir/uv/pharm-quality/CodeSystem/cs-substance-property-value-local-pq"/>
                     <code value="class-5"/>
                     <display value="Class 5"/>
                  </coding>
               </valueCodeableConcept>
            </property>
            <property>
               <type>
                  <coding>
                     <system value="http://hl7.org/fhir/uv/pharm-quality/CodeSystem/cs-mutagenicityClassificationType-local-pq"/>
                     <code value="123557"/>
                     <display value="Mutagenicity Comment"/>
                  </coding>
               </type>
               <valueCodeableConcept>
                  <text value="Treated as non-mutagenic due to lack of alerting structure"/>
               </valueCodeableConcept>
            </property>
            <molecularWeight>
               <amount>
                  <value value="144.173"/>
                  <unit value="g/mole"/>
                  <system value="http://unitsofmeasure.org"/>
                  <code value="g/mol"/>
               </amount>
            </molecularWeight>
            <structure>
               <representation>
                  <document>
                            <!--DocumentReference/impurityNaptholDoc-->
                     <reference value="DocumentReference/13d68d1c-162c-8b6e-80f9-647b0ea97ad3"/>
                  </document>
               </representation>
               <representation>
                  <type>
                     <coding>
                        <system value="http://hl7.org/fhir/substance-representation-format"/>
                        <code value="SMILES"/>
                        <display value="SMILES"/>
                     </coding>
                  </type>
                  <representation value="OC1=CC2=C(C=C1)C=CC=C2"/>
               </representation>
               <representation>
                  <type>
                     <coding>
                        <system value="http://hl7.org/fhir/substance-representation-format"/>
                        <code value="InChI"/>
                        <display value="InChI"/>
                     </coding>
                  </type>
                  <representation value="1S/C10H8O/c11-10-6-5-8-3-1-2-4-9(8)7-10/h1-7,11H"/>
               </representation>
            </structure>
            <code>
               <code>
                  <coding>
                     <system value="http://terminology.hl7.org/CodeSystem/CAS"/>
                     <code value="135-19-3"/>
                     <display value="2-Naphthol"/>
                  </coding>
               </code>
            </code>
            <name>
               <name value="β-naphthol"/>
            </name>
         </SubstanceDefinition>
      </resource>
   </entry>
   <entry>
      <fullUrl value="urn:uuid:13d68d1c-162c-8b6e-80f9-647b0ea97ad3"/>
      <resource>
         <DocumentReference>
                <!--impurityNaptholDoc-->
            <id value="13d68d1c-162c-8b6e-80f9-647b0ea97ad3"/>
            <status value="current"/>
            <content>
               <attachment>
                  <contentType value="image/x-png"/>
                  <data value=""/>
               </attachment>
            </content>
         </DocumentReference>
      </resource>
   </entry>
   <entry>
      <fullUrl value="urn:uuid:03d68d1c-162c-8b6e-80f9-647b0ea97ad4"/>
      <resource>
         <SubstanceDefinition>
                <!--impurityPropanol-->
            <id value="03d68d1c-162c-8b6e-80f9-647b0ea97ad4"/>
            <characterization>
               <technique>
                  <text value="Impurity content by LC-MS"/>
               </technique>
            </characterization>
            <characterization>
               <technique>
                  <text value="UV spectroscopy"/>
               </technique>
            </characterization>
            <characterization>
               <technique>
                  <text value="NMR spectroscopy"/>
               </technique>
            </characterization>
            <property>
               <type>
                  <coding>
                     <system value="http://hl7.org/fhir/uv/pharm-quality/CodeSystem/cs-mutagenicityClassificationType-local-pq"/>
                     <code value="1233444"/>
                     <display value="Rule-based (Q)Sar"/>
                  </coding>
               </type>
               <valueCodeableConcept>
                  <coding>
                     <system value="http://hl7.org/fhir/uv/pharm-quality/CodeSystem/cs-substance-property-value-local-pq"/>
                     <code value="positive"/>
                     <display value="Positive"/>
                  </coding>
               </valueCodeableConcept>
            </property>
            <property>
               <type>
                  <coding>
                     <system value="http://hl7.org/fhir/uv/pharm-quality/CodeSystem/cs-mutagenicityClassificationType-local-pq"/>
                     <code value="123555"/>
                     <display value="Statistical (Q)Sar"/>
                  </coding>
               </type>
               <valueCodeableConcept>
                  <coding>
                     <system value="http://hl7.org/fhir/uv/pharm-quality/CodeSystem/cs-substance-property-value-local-pq"/>
                     <code value="positive"/>
                     <display value="Positive"/>
                  </coding>
               </valueCodeableConcept>
            </property>
            <property>
               <type>
                  <coding>
                     <system value="http://hl7.org/fhir/uv/pharm-quality/CodeSystem/cs-mutagenicityClassificationType-local-pq"/>
                     <code value="123556"/>
                     <display value="ICH M7 Classification"/>
                  </coding>
               </type>
               <valueCodeableConcept>
                  <coding>
                     <system value="http://hl7.org/fhir/uv/pharm-quality/CodeSystem/cs-substance-property-value-local-pq"/>
                     <code value="class-2"/>
                     <display value="Class 2"/>
                  </coding>
               </valueCodeableConcept>
            </property>
            <property>
               <type>
                  <coding>
                     <system value="http://hl7.org/fhir/uv/pharm-quality/CodeSystem/cs-mutagenicityClassificationType-local-pq"/>
                     <code value="123557"/>
                     <display value="Mutagenicity Comment"/>
                  </coding>
               </type>
               <valueCodeableConcept>
                  <text value="Control at or below qualification threshold"/>
               </valueCodeableConcept>
            </property>
            <molecularWeight>
               <amount>
                  <value value="245.32"/>
                  <unit value="g/mole"/>
                  <system value="http://unitsofmeasure.org"/>
                  <code value="g/mol"/>
               </amount>
            </molecularWeight>
            <structure>
               <representation>
                  <document>
                            <!--DocumentReference/impurityPropanolDoc-->
                     <reference value="DocumentReference/13d68d1c-162c-8b6e-80f9-647b0ea97ad4"/>
                  </document>
               </representation>
            </structure>
            <!-- not in CAS -->
            <name>
               <name value="1-(Ethylamino)-3-(2-naphthyloxy)-2-propanol"/>
            </name>
         </SubstanceDefinition>
      </resource>
   </entry>
   <entry>
      <fullUrl value="urn:uuid:13d68d1c-162c-8b6e-80f9-647b0ea97ad4"/>
      <resource>
         <DocumentReference>
                <!--impurityPropanolDoc-->
            <id value="13d68d1c-162c-8b6e-80f9-647b0ea97ad4"/>
            <status value="current"/>
            <content>
               <attachment>
                  <contentType value="image/x-png"/>
                  <data value=""/>
               </attachment>
            </content>
         </DocumentReference>
      </resource>
   </entry>
   <entry>
      <fullUrl value="urn:uuid:062bf235-44e2-55c4-9213-bbe5e12d5620"/>
      <resource>
         <Organization>
				<!--substance-manufacturer-->
            <id value="062bf235-44e2-55c4-9213-bbe5e12d5620"/>
            <identifier>
					<!-- FDA establishment identifier -->
               <system value="urn:oid:2.16.840.1.113883.4.82"/>
               <value value="3003040516"/>
            </identifier>
            <active value="true"/>
            <type>
               <coding>
                  <system value="http://hl7.org/fhir/uv/pharm-quality/CodeSystem/cs-pharmaceutical-organization-type"/>
                  <code value="drug-substance-manufacture"/>
                  <display value="Drug Substance Manufacture"/>
               </coding>
            </type>
            <name value="AAA Molybdenum Products, Inc."/>
            <contact>
               <address>
                  <line value="7233 W 116th Pl"/>
                  <line value="Ste C"/>
                  <city value="Broomfield"/>
                  <state value="Colorado"/>
                  <postalCode value="80020"/>
                  <country value="USA"/>
               </address>
            </contact>
         </Organization>
      </resource>
   </entry>
</Bundle>
