<?xml version="1.0" encoding="UTF-8"?>
<Bundle xmlns="http://hl7.org/fhir">
   <id value="bundle-container-closure-system-dxpq-ex2-sub"/>
<!--   <id value="container-closure-substance"/>-->
   <meta>
      <profile value="http://hl7.org/fhir/uv/dx-pq/StructureDefinition/Bundle-container-closure-system-dxpq"/>
<!--      <profile value="http://accumulus.org/fhir/dx-cmc/container-closure-substance"/>-->
   </meta>
   <type value="collection"/>
   <entry>
      <fullUrl value="urn:uuid:878c2849-792c-6469-21a2-c2b920930962"/>
      <resource>
         <SubstanceDefinition>
            <!--substance1-->
            <id value="878c2849-792c-6469-21a2-c2b920930962"/>
            <name>
               <name value="Stelbatolol"/>
               <!-- #4 -->
            </name>
         </SubstanceDefinition>
      </resource>
   </entry>
   <entry>
      <fullUrl value="urn:uuid:b107a2ba-32d8-0124-7855-4096057c52a9"/>
      <resource>
         <PackagedProductDefinition>
            <!--packageDefinition-->
            <id value="b107a2ba-32d8-0124-7855-4096057c52a9"/>
            <!-- no product referenced, instead link works via the contained manufactured item -->
            <!-- #176 -->
            <description value="Any textual comments that describe the sum of container closure system (CCS) components that together contain and protect the dosage form or drug substance."/>
            <!-- secondary packaging -->
            <packaging> <!-- #189 -->
               <type> <!-- #191 -->
                  <coding>
                     <system value="http://hl7.org/fhir/packaging-type"/>
                     <code value="100000073493"/>
                     <display value="Bag"/>
                  </coding>
               </type>
               <material> <!-- #192 -->
                  <coding>
                     <system value="http://hl7.org/fhir/package-material"/>
                     <code value="200000003216"/>
                     <display value="Low Density PolyEthylene"/>
                  </coding>
               </material>
               <property>
                  <type>
                     <coding>
                        <system value="http://accumulus.org/fhir/code/packageProperty"/>
                        <code value="xxxx"/>
                        <display value="Quality Specification"/>
                     </coding>
                  </type>
                  <valueCodeableConcept>
                     <text value="Complies with FDA 21 CFR 177.1520 (c) 2.2 (olefin polymers)"/>
                  </valueCodeableConcept>
               </property>
               <property>
                  <type>
                     <coding>
                        <system value="http://accumulus.org/fhir/code/packageProperty"/>
                        <code value="xxxx"/>
                        <display value="Quality Specification"/>
                     </coding>
                  </type>
                  <valueCodeableConcept>
                     <text value="Complies with Commission Regulation (EU) No. 10/2011 including its amendments EU 321/2011, EU  1282/2011, EU 1183/2012, EU 202/2014 and EU 2015/174 Complies with Ph. Eur. 3.2.2"/>
                  </valueCodeableConcept>
               </property>
               <containedItem>
                  <item>
                     <reference>
                        <!--ManufacturedItemDefinition/packaged-item-->
                        <reference value="ManufacturedItemDefinition/1531c777-50c3-047d-2798-de3d001d2c44"/>
                     </reference>
                  </item>
               </containedItem>
               <!-- closure for secondary
                        packaging -->
            </packaging>
         </PackagedProductDefinition>
      </resource>
   </entry>
   <entry>
      <fullUrl value="urn:uuid:b107a2ba-32d8-0124-7855-4096057c52b9"/>
      <resource>
         <PackagedProductDefinition>
            <!--packageDefinition2-->
            <id value="b107a2ba-32d8-0124-7855-4096057c52b9"/>
            <!-- no product referenced, instead link works via the contained manufactured item -->
            <!-- #176 -->
            <description value="Any textual comments that describe the sum of container closure system (CCS) components that together contain and protect the dosage form or drug substance."/>
            <!-- secondary packaging -->
            <packaging> <!-- #189 -->
               <type> <!-- #191 -->
                  <coding>
                     <system value="http://hl7.org/fhir/packaging-type"/>
                     <code value="100000073497"/>
                     <display value="Bottle"/>
                  </coding>
               </type>
               <material> <!-- #192 -->
                  <coding>
                     <system value="http://hl7.org/fhir/package-material"/>
                     <code value="200000003215"/>
                     <display value="High Density PolyEthylene"/>
                  </coding>
               </material>
               <containedItem>
                  <item>
                     <reference>
                        <!--ManufacturedItemDefinition/packaged-item-->
                        <reference value="ManufacturedItemDefinition/1531c777-50c3-047d-2798-de3d001d2c44"/>
                     </reference>
                  </item>
               </containedItem>
               <!-- closure for secondary
                        packaging -->
            </packaging>
         </PackagedProductDefinition>
      </resource>
   </entry>
   <entry>
      <fullUrl value="urn:uuid:1531c777-50c3-047d-2798-de3d001d2c44"/>
      <resource>
         <ManufacturedItemDefinition>
            <!--packaged-item-->
            <id value="1531c777-50c3-047d-2798-de3d001d2c44"/>
            <status value="active"/>
            <manufacturedDoseForm>
               <extension url="http://hl7.org/fhir/StructureDefinition/data-absent-reason">
                  <valueCode value="unsupported"/>
               </extension>
            </manufacturedDoseForm>
         </ManufacturedItemDefinition>
      </resource>
   </entry>
   <entry>
      <fullUrl value="urn:uuid:f26b997a-3ab9-7552-a6cc-fd771d1f1863"/>
      <resource>
        	<!-- ingredient is only needed to link substance to packaging, via manufactured item -->
         <Ingredient>
            <!--ingredient1-->
            <id value="f26b997a-3ab9-7552-a6cc-fd771d1f1863"/>
            <status value="active"/>
            <for>
               <!--ManufacturedItemDefinition/packaged-item-->
               <reference value="ManufacturedItemDefinition/1531c777-50c3-047d-2798-de3d001d2c44"/>
            </for>
            <role>
               <extension url="http://hl7.org/fhir/StructureDefinition/data-absent-reason">
                  <valueCode value="not-applicable"/>
               </extension>
            </role>
            <substance>
               <code>
                  <reference> <!-- this links this to the substance -->
                     <!--SubstanceDefinition/substance1-->
                     <reference value="SubstanceDefinition/878c2849-792c-6469-21a2-c2b920930962"/>
                     <display value="WizzoSubstance"/>
                  </reference>
               </code>
            </substance>
         </Ingredient>
      </resource>
   </entry>
   <entry>
      <fullUrl value="urn:uuid:2138e4c7-22b8-4c56-2d28-6c077648763f"/>
      <resource>
         <PlanDefinition>
            <!--packagingSpecification-unlinked-->
            <id value="2138e4c7-22b8-4c56-2d28-6c077648763f"/>
            <!--extension url="http://nprogram.co.uk/fhir/extension/viewer/tabulateBatchesInRows-biologic">
                    <valueBoolean value="true"/>
                </extension-->
            <url value="http://example-server.com/fhir/PlanDefinition/2138e4c7-22b8-4c56-2d28-6c077648763f"/>
            <title value="Specification and Analytical Procedures"/>
            <type>
               <coding>
                  <system value="http://terminology.hl7.org/CodeSystem/plan-definition-type"/>
                  <code value="workflow-definition"/>
                  <display value="Workflow Definition"/>
               </coding>
               <coding>
                  <system value="http://accumulus.org/fhir/code/planType"/>
                  <code value="container-specification"/>
                  <display value="Container Specification"/>
               </coding>
            </type>
            <status value="active"/>
            <subjectReference>
               <!--PackagedProductDefinition/packageDefinition-->
               <reference value="PackagedProductDefinition/b107a2ba-32d8-0124-7855-4096057c52a9"/>
            </subjectReference>
            <description value="Packaging components are sampled, tested, and examined for conformance with written specifications.                The specification for the primary packaging component are provided in Table 1."/>
            <action>
               <title value="Container Specification"/>
               <code>
                  <coding>
                     <system value="http://temp.hl7.org/fhir/CodeSystem/specification-type"/>
                     <code value="ContainerSpecification"/>
                     <display value="Container Specification"/>
                  </coding>
                  <text value="Container Specification"/>
               </code>
               <action>
                  <description value="Container Type"/>
                  <code>
                     <text value="Test"/>
                  </code>
                  <!--ObservationDefinition/VisualInspection-->
                  <definitionCanonical value="ObservationDefinition/64525b3c-5134-448a-9d19-939ce1958524"/>
               </action>
               <action>
                  <description value="Material Identification"/>
                  <code>
                     <text value="Test"/>
                  </code>
                  <!--ObservationDefinition/InfraredSpectroscopy-->
                  <definitionCanonical value="ObservationDefinition/64525b3c-5134-448a-9d19-939ce1958525"/>
               </action>
               <action>
                  <description value="Material Conformity"/>
                  <code>
                     <text value="Test"/>
                  </code>
                  <!--ObservationDefinition/SupplierCertificateofAnalysis-->
                  <definitionCanonical value="ObservationDefinition/64525b3c-5134-448a-9d19-939ce1958535"/>
               </action>
            </action>
         </PlanDefinition>
      </resource>
   </entry>
   <entry>
      <fullUrl value="urn:uuid:64525b3c-5134-448a-9d19-939ce1958524"/>
      <resource>
         <ObservationDefinition>
            <!--VisualInspection-->
            <id value="64525b3c-5134-448a-9d19-939ce1958524"/>
            <url value="http://example-server.com/fhir/ObservationDefinition/64525b3c-5134-448a-9d19-939ce1958524"/>
            <title value="Visual Inspection"/>
            <status value="active"/>
            <code>
               <coding>
                  <system value="http://dummy.loinc.org"/>
                  <code value="XXX"/>
                  <display value="VisualInspection"/>
               </coding>
            </code>
            <qualifiedValue>
               <extension url="http://hl7.org/fhir/uv/dx-pq/StructureDefinition/Extension-qualified-value-text-dxpq">
                  <valueString value="Corresponds"/>
               </extension>
            </qualifiedValue>
         </ObservationDefinition>
      </resource>
   </entry>
   <entry>
      <fullUrl value="urn:uuid:64525b3c-5134-448a-9d19-939ce1958525"/>
      <resource>
         <ObservationDefinition>
            <!--InfraredSpectroscopy-->
            <id value="64525b3c-5134-448a-9d19-939ce1958525"/>
            <url value="http://example-server.com/fhir/ObservationDefinition/64525b3c-5134-448a-9d19-939ce1958525"/>
            <title value="Infrared Spectroscopy"/>
            <status value="active"/>
            <code>
               <coding>
                  <system value="http://dummy.loinc.org"/>
                  <code value="XXX"/>
                  <display value="InfraredSpectroscopy"/>
               </coding>
            </code>
            <qualifiedValue>
               <extension url="http://hl7.org/fhir/uv/dx-pq/StructureDefinition/Extension-qualified-value-text-dxpq">
                  <valueString value="Corresponds with reference"/>
               </extension>
            </qualifiedValue>
         </ObservationDefinition>
      </resource>
   </entry>
   <entry>
      <fullUrl value="urn:uuid:64525b3c-5134-448a-9d19-939ce1958535"/>
      <resource>
         <ObservationDefinition>
            <!--SupplierCertificateofAnalysis-->
            <id value="64525b3c-5134-448a-9d19-939ce1958535"/>
            <url value="http://example-server.com/fhir/ObservationDefinition/64525b3c-5134-448a-9d19-939ce1958535"/>
            <title value="Supplier Certificate of Analysis"/>
            <status value="active"/>
            <code>
               <coding>
                  <system value="http://dummy.loinc.org"/>
                  <code value="XXX"/>
                  <display value="SupplierCertificateofAnalysis"/>
               </coding>
            </code>
            <qualifiedValue>
               <extension url="http://hl7.org/fhir/uv/dx-pq/StructureDefinition/Extension-qualified-value-text-dxpq">
                  <valueString value="Corresponds"/>
               </extension>
            </qualifiedValue>
         </ObservationDefinition>
      </resource>
   </entry>
</Bundle>
